#Time	x(km)		y(km)		z(km)		alt(km)	    relVel		dwnrng(km)	 Q(kPa)	   Fuel(tons) dV_tot	  dV_grav	  dv_drag		 throttle	accel (g's)	      aoa
 -4.05	  917.129	-5526.343	 3049.432	   0.000	   0.000	0.000	     0.000	   409.500	     0.000	     0.000	     0.000	     0.000	     1.000	     0.000	    28.562	    28.562	 0.200
 -3.05	  917.129	-5526.343	 3049.432	   0.000	   0.000	0.000	     0.000	   409.500	     0.000	     0.000	     0.000	     0.000	     1.000	     0.000	    28.562	    28.562	 0.200
 -2.05	  917.129	-5526.343	 3049.432	   0.000	   0.000	0.000	     0.000	   409.500	     0.000	     0.000	     0.000	     0.000	     1.000	     0.000	    28.562	    28.562	 0.200
 -1.05	  917.129	-5526.343	 3049.432	   0.000	   0.000	0.000	     0.000	   408.719	     3.921	     0.000	     0.000	     1.000	     1.586	     0.000	    28.562	    28.562	 0.200
 -0.05	  917.129	-5526.343	 3049.432	   0.000	   0.000	0.000	     0.000	   406.434	    15.416	     0.000	     0.000	     1.000	     1.942	     0.000	    28.562	    28.562	 0.200
  0.00	  917.129	-5526.343	 3049.432	   0.000	   0.000	0.000	     0.000	   406.251	    16.338	     0.000	     0.000	     1.000	     1.255	    61.438	    28.562	    90.000	 0.200
  1.00	  917.130	-5526.345	 3049.432	   0.001	   2.611	0.000	     0.004	   403.815	    28.656	     0.000	     0.000	     1.000	     1.260	     0.311	    89.689	    89.996	 0.200
  2.00	  917.130	-5526.348	 3049.434	   0.005	   5.215	0.000	     0.016	   401.378	    41.030	     0.000	     0.000	     1.000	     1.266	     0.312	    89.688	    89.993	 0.200
  3.00	  917.131	-5526.353	 3049.437	   0.012	   7.876	0.000	     0.036	   398.941	    53.461	     0.000	     0.000	     1.000	     1.272	     0.310	    89.689	    89.989	 0.200
  4.00	  917.132	-5526.361	 3049.441	   0.021	  10.594	0.000	     0.066	   396.504	    65.949	     0.000	     0.000	     1.000	     1.278	     0.308	    89.690	    89.985	 0.200
  5.05	  917.134	-5526.372	 3049.447	   0.033	  13.510	0.000	     0.108	   393.945	    79.125	     0.000	     0.000	     1.000	     1.284	     0.306	    89.690	    89.982	 0.200
  6.05	  917.136	-5526.385	 3049.454	   0.048	  16.349	0.000	     0.159	   391.508	    91.735	     0.000	     0.000	     1.000	     1.290	     0.305	    89.691	    89.978	 0.200
  7.05	  917.139	-5526.401	 3049.463	   0.066	  19.248	0.000	     0.220	   389.072	   104.405	     0.000	     0.000	     1.000	     1.296	     0.303	    89.691	    89.974	 0.200
  8.05	  917.142	-5526.419	 3049.473	   0.087	  22.209	0.000	     0.293	   386.635	   117.137	     0.000	     0.000	     1.000	     1.303	     0.302	    89.691	    89.971	 0.200
  9.00	  917.145	-5526.438	 3049.483	   0.109	  25.079	0.001	     0.374	   384.320	   129.292	     0.000	     0.000	     1.000	     1.309	     0.300	    89.690	    89.967	 0.200
 10.00	  917.149	-5526.461	 3049.496	   0.135	  28.162	0.001	     0.471	   381.883	   142.148	     0.000	     0.000	     1.000	     1.315	     0.299	    89.689	    89.963	 0.200
 11.00	  917.153	-5526.487	 3049.510	   0.165	  31.310	0.001	     0.581	   379.446	   155.070	     0.000	     0.000	     1.000	     1.322	     0.298	    89.687	    89.960	 0.200
 12.00	  917.158	-5526.515	 3049.525	   0.198	  34.523	0.001	     0.705	   377.009	   168.058	     0.000	     0.000	     1.000	     1.328	     0.298	    89.685	    89.956	 0.200
 13.00	  917.163	-5526.547	 3049.542	   0.234	  37.803	0.001	     0.843	   374.572	   181.113	     0.000	     0.000	     1.000	     1.335	     0.297	    89.683	    89.952	 0.200
 14.00	  917.168	-5526.581	 3049.561	   0.273	  41.151	0.001	     0.995	   372.136	   194.238	     0.000	     0.000	     1.000	     1.342	     0.297	    89.681	    89.949	 0.200
 15.00	  917.174	-5526.618	 3049.581	   0.316	  44.567	0.002	     1.164	   369.699	   207.432	     0.000	     0.000	     1.000	     1.349	     0.297	    89.678	    89.945	 0.200
 16.00	  917.181	-5526.658	 3049.603	   0.362	  48.053	0.002	     1.348	   367.262	   220.698	     0.000	     0.000	     1.000	     1.356	     0.297	    89.675	    89.941	 0.200
 17.00	  917.188	-5526.702	 3049.627	   0.412	  51.611	0.002	     1.548	   364.825	   234.037	     0.000	     0.000	     1.000	     1.364	     0.297	    89.671	    89.938	 0.200
 18.00	  917.195	-5526.748	 3049.652	   0.465	  55.240	0.003	     1.766	   362.388	   247.449	     0.000	     0.000	     1.000	     1.371	     0.297	    89.668	    89.934	 0.200
 19.00	  917.203	-5526.798	 3049.679	   0.522	  58.943	0.003	     2.001	   359.951	   260.937	     0.000	     0.000	     1.000	     1.379	     0.297	    89.664	    89.930	 0.200
 20.00	  917.212	-5526.850	 3049.708	   0.583	  62.721	0.003	     2.254	   357.514	   274.501	     0.000	     0.000	     1.000	     1.386	     0.298	    89.660	    89.927	 0.200
 21.00	  917.221	-5526.906	 3049.739	   0.648	  66.575	0.004	     2.525	   355.078	   288.143	     0.000	     0.000	     1.000	     1.394	     0.298	    89.656	    89.923	 0.200
 22.00	  917.231	-5526.966	 3049.771	   0.716	  70.505	0.004	     2.814	   352.641	   301.864	     0.000	     0.000	     1.000	     1.402	     0.299	    89.651	    89.920	 0.200
 23.00	  917.241	-5527.029	 3049.805	   0.789	  74.513	0.004	     3.123	   350.204	   315.666	     0.000	     0.000	     1.000	     1.410	     0.300	    89.647	    89.916	 0.200
 24.00	  917.251	-5527.095	 3049.842	   0.865	  78.601	0.005	     3.452	   347.767	   329.550	     0.000	     0.000	     1.000	     1.418	     0.301	    89.642	    89.912	 0.200
 25.00	  917.263	-5527.165	 3049.880	   0.946	  82.770	0.005	     3.800	   345.330	   343.518	     0.000	     0.000	     1.000	     1.426	     0.301	    89.637	    89.909	 0.200
 26.00	  917.275	-5527.239	 3049.920	   1.030	  87.018	0.006	     4.168	   342.893	   357.570	     0.000	     0.000	     1.000	     1.435	    -1.585	    89.709	    88.595	 0.200
 27.00	  917.287	-5527.316	 3049.962	   1.119	  91.341	0.006	     4.555	   340.457	   371.709	     0.000	     0.000	     1.000	     1.443	    -2.745	    89.708	    87.099	 0.200
 28.00	  917.302	-5527.397	 3050.007	   1.213	  95.735	0.006	     4.961	   338.020	   385.935	     0.000	     0.000	     1.000	     1.452	    -3.715	    89.271	    85.602	 0.200
 29.00	  917.317	-5527.482	 3050.053	   1.311	 100.203	0.006	     5.387	   335.583	   400.251	     0.000	     0.000	     1.000	     1.461	    -4.518	    88.599	    84.106	 0.200
 30.00	  917.335	-5527.570	 3050.102	   1.413	 104.747	0.007	     5.831	   333.146	   414.657	     0.000	     0.000	     1.000	     1.470	    -5.173	    87.766	    82.610	 0.200
 31.00	  917.356	-5527.662	 3050.152	   1.520	 109.357	0.010	     6.292	   330.709	   429.155	     0.000	     0.000	     1.000	     1.479	    -5.732	    86.720	    81.000	 0.200
 32.00	  917.379	-5527.758	 3050.205	   1.631	 114.087	0.016	     6.777	   328.272	   443.747	     0.000	     0.000	     1.000	     1.488	    -4.727	    85.716	    81.000	 0.200
 33.00	  917.405	-5527.857	 3050.260	   1.747	 118.940	0.026	     7.285	   325.835	   458.434	     0.000	     0.000	     1.000	     1.497	    -3.801	    84.789	    81.000	 0.200
 34.00	  917.435	-5527.960	 3050.317	   1.868	 123.912	0.037	     7.817	   323.399	   473.217	     0.000	     0.000	     1.000	     1.506	    -2.946	    83.934	    81.000	 0.200
 35.00	  917.467	-5528.066	 3050.377	   1.993	 129.003	0.051	     8.372	   320.962	   488.098	     0.000	     0.000	     1.000	     1.516	    -2.158	    83.144	    81.000	 0.200
 36.00	  917.502	-5528.177	 3050.439	   2.124	 134.211	0.068	     8.948	   318.525	   503.079	     0.000	     0.000	     1.000	     1.526	    -1.433	    82.413	    81.000	 0.200
 37.00	  917.540	-5528.291	 3050.503	   2.259	 139.535	0.087	     9.547	   316.088	   518.160	     0.000	     0.000	     1.000	     1.535	    -0.771	    81.738	    81.000	 0.200
 38.05	  917.583	-5528.416	 3050.573	   2.407	 145.247	0.109	    10.197	   313.529	   534.105	     0.000	     0.000	     1.000	     1.546	    -0.230	    81.082	    81.000	 0.200
 39.05	  917.628	-5528.539	 3050.643	   2.553	 150.805	0.133	    10.837	   311.093	   549.397	     0.000	     0.000	     1.000	     1.556	     0.536	    80.506	    81.000	 0.200
 40.05	  917.675	-5528.666	 3050.715	   2.704	 156.476	0.159	    11.495	   308.656	   564.795	     0.000	     0.000	     1.000	     1.566	     1.048	    79.971	    81.000	 0.200
 41.05	  917.726	-5528.797	 3050.789	   2.861	 162.259	0.187	    12.170	   306.219	   580.299	     0.000	     0.000	     1.000	     1.576	     1.536	    79.476	    81.000	 0.200
 42.05	  917.780	-5528.933	 3050.866	   3.023	 168.156	0.218	    12.861	   303.782	   595.911	     0.000	     0.000	     1.000	     1.586	     1.992	    79.017	    81.000	 0.200
 43.05	  917.837	-5529.073	 3050.946	   3.191	 174.165	0.251	    13.566	   301.345	   611.633	     0.000	     0.000	     1.000	     1.597	     2.416	    78.591	    81.000	 0.200
 44.05	  917.897	-5529.218	 3051.028	   3.364	 180.288	0.287	    14.284	   298.908	   627.466	     0.000	     0.000	     1.000	     1.608	     2.810	    78.196	    81.000	 0.200
 45.05	  917.960	-5529.367	 3051.113	   3.543	 186.523	0.325	    15.013	   296.471	   643.412	     0.000	     0.000	     1.000	     1.618	     3.176	    77.829	    81.000	 0.200
 46.05	  918.027	-5529.521	 3051.201	   3.728	 192.872	0.365	    15.750	   294.035	   659.471	     0.000	     0.000	     1.000	     1.629	     3.516	    77.489	    81.000	 0.200
 47.05	  918.097	-5529.680	 3051.292	   3.920	 199.336	0.408	    16.494	   291.598	   675.646	     0.000	     0.000	     1.000	     1.640	     3.831	    77.173	    81.000	 0.200
 48.05	  918.170	-5529.844	 3051.385	   4.117	 205.914	0.454	    17.242	   289.161	   691.937	     0.000	     0.000	     1.000	     1.651	     4.124	    76.880	    81.000	 0.200
 49.05	  918.247	-5530.013	 3051.482	   4.320	 212.607	0.502	    17.992	   286.724	   708.347	     0.000	     0.000	     1.000	     1.663	     4.396	    76.608	    81.000	 0.200
 50.05	  918.327	-5530.187	 3051.582	   4.530	 219.416	0.552	    18.741	   284.287	   724.876	     0.000	     0.000	     1.000	     1.674	     4.648	    76.355	    81.000	 0.200
 51.05	  918.410	-5530.366	 3051.685	   4.746	 226.342	0.605	    19.486	   281.850	   741.525	     0.000	     0.000	     1.000	     1.685	     4.881	    76.121	    81.000	 0.203
 52.05	  918.497	-5530.550	 3051.790	   4.969	 233.380	0.661	    20.225	   279.414	   758.297	     0.000	     0.000	     1.000	     1.696	     5.098	    75.904	    81.000	 0.209
 53.05	  918.588	-5530.740	 3051.900	   5.199	 240.529	0.719	    20.952	   276.977	   775.193	     0.000	     0.000	     1.000	     1.707	     5.299	    75.703	    81.000	 0.217
 54.05	  918.682	-5530.935	 3052.012	   5.435	 247.787	0.779	    21.665	   274.540	   792.214	     0.000	     0.000	     1.000	     1.718	     5.485	    75.517	    81.000	 0.227
 55.05	  918.779	-5531.136	 3052.127	   5.678	 255.154	0.842	    22.359	   272.103	   809.361	     0.000	     0.000	     1.000	     1.729	     5.658	    75.345	    81.000	 0.238
 56.05	  918.880	-5531.342	 3052.246	   5.929	 262.648	0.908	    23.036	   269.666	   826.635	     0.000	     0.000	     1.000	     1.739	     4.368	    75.139	    79.505	 0.251
 57.05	  918.985	-5531.554	 3052.368	   6.186	 270.285	0.977	    23.693	   267.229	   844.039	     0.000	     0.000	     1.000	     1.750	     3.160	    74.851	    78.010	 0.265
 58.05	  919.095	-5531.771	 3052.494	   6.450	 278.058	1.049	    24.327	   264.792	   861.573	     0.000	     0.000	     1.000	     1.760	     2.027	    74.488	    76.514	 0.280
 59.05	  919.209	-5531.994	 3052.623	   6.721	 285.964	1.126	    24.933	   262.356	   879.238	     0.000	     0.000	     1.000	     1.770	     0.027	    74.024	    74.051	 0.296
 60.05	  919.330	-5532.223	 3052.755	   6.999	 293.999	1.207	    25.509	   259.919	   897.036	     0.000	     0.000	     1.000	     1.780	     0.027	    73.495	    73.522	 0.313
 61.05	  919.456	-5532.456	 3052.890	   7.285	 302.160	1.293	    26.049	   257.482	   914.968	     0.000	     0.000	     1.000	     1.790	     0.027	    72.964	    72.991	 0.330
 62.05	  919.588	-5532.695	 3053.029	   7.577	 310.447	1.384	    26.552	   255.045	   933.035	     0.000	     0.000	     1.000	     1.801	     0.027	    72.432	    72.459	 0.347
 63.05	  919.726	-5532.939	 3053.171	   7.876	 318.863	1.480	    27.013	   252.608	   951.238	     0.000	     0.000	     1.000	     1.811	     0.027	    71.898	    71.925	 0.365
 64.05	  919.871	-5533.189	 3053.316	   8.182	 327.408	1.582	    27.430	   250.171	   969.579	     0.000	     0.000	     1.000	     1.821	     0.027	    71.363	    71.390	 0.382
 65.05	  920.022	-5533.443	 3053.465	   8.496	 336.085	1.689	    27.800	   247.735	   988.059	     0.000	     0.000	     1.000	     1.832	     0.027	    70.827	    70.854	 0.398
 66.05	  920.180	-5533.704	 3053.616	   8.817	 344.898	1.802	    28.123	   245.298	  1006.679	     0.000	     0.000	     1.000	     1.842	     0.027	    70.291	    70.318	 0.414
 67.05	  920.345	-5533.969	 3053.772	   9.145	 353.848	1.921	    28.395	   242.861	  1025.441	     0.000	     0.000	     1.000	     1.853	     0.027	    69.755	    69.782	 0.430
 68.05	  920.518	-5534.240	 3053.931	   9.480	 362.941	2.047	    28.615	   240.424	  1044.344	     0.000	     0.000	     1.000	     1.865	     0.027	    69.219	    69.246	 0.444
 69.05	  920.697	-5534.516	 3054.093	   9.823	 372.180	2.179	    28.783	   237.987	  1063.392	     0.000	     0.000	     1.000	     1.876	     0.027	    68.684	    68.711	 0.456
 70.05	  920.885	-5534.798	 3054.258	  10.173	 381.570	2.317	    28.898	   235.550	  1082.584	     0.000	     0.000	     1.000	     1.889	     0.027	    68.149	    68.176	 0.468
 71.05	  921.080	-5535.085	 3054.427	  10.531	 391.117	2.462	    28.960	   233.113	  1101.922	     0.000	     0.000	     1.000	     1.901	     0.027	    67.615	    67.642	 0.477
 72.05	  921.283	-5535.377	 3054.600	  10.896	 400.827	2.615	    28.971	   230.677	  1121.408	     0.000	     0.000	     1.000	     1.915	     0.027	    67.082	    67.109	 0.485
 73.05	  921.495	-5535.675	 3054.776	  11.269	 410.705	2.774	    28.931	   228.240	  1141.043	     0.000	     0.000	     1.000	     1.928	     0.027	    66.551	    66.577	 0.491
 74.05	  921.715	-5535.979	 3054.955	  11.649	 420.760	2.941	    28.844	   225.803	  1160.827	     0.000	     0.000	     1.000	     1.943	     0.027	    66.021	    66.048	 0.494
 75.05	  921.943	-5536.287	 3055.138	  12.037	 430.997	3.115	    28.712	   223.366	  1180.763	     0.000	     0.000	     1.000	     1.958	     0.027	    65.493	    65.520	 0.496
 76.05	  922.181	-5536.602	 3055.325	  12.433	 441.422	3.298	    28.540	   220.929	  1200.851	     0.000	     0.000	     1.000	     1.973	     0.026	    64.968	    64.994	 0.496
 77.05	  922.428	-5536.921	 3055.515	  12.837	 452.040	3.488	    28.332	   218.492	  1221.094	     0.000	     0.000	     1.000	     1.989	     0.026	    64.444	    64.471	 0.495
 78.05	  922.684	-5537.247	 3055.709	  13.248	 462.856	3.687	    28.095	   216.056	  1241.491	     0.000	     0.000	     1.000	     2.006	     0.026	    63.924	    63.950	 0.493
 79.05	  922.949	-5537.578	 3055.906	  13.668	 473.876	3.894	    27.837	   213.619	  1262.046	     0.000	     0.000	     1.000	     2.023	     0.026	    63.406	    63.432	 0.489
 80.05	  923.225	-5537.914	 3056.107	  14.095	 485.111	4.110	    26.513	   211.182	  1282.758	     0.000	     0.000	     1.000	     2.043	     0.026	    62.891	    62.917	 0.484
 81.05	  923.511	-5538.256	 3056.312	  14.531	 496.587	4.336	    25.937	   208.745	  1303.631	     0.000	     0.000	     1.000	     2.062	     0.026	    62.379	    62.405	 0.478
 82.05	  923.807	-5538.604	 3056.521	  14.974	 508.289	4.570	    25.336	   206.308	  1324.664	     0.000	     0.000	     1.000	     2.081	     0.026	    61.871	    61.897	 0.470
 83.05	  924.113	-5538.957	 3056.733	  15.427	 520.220	4.814	    24.712	   203.871	  1345.861	     0.000	     0.000	     1.000	     2.100	     0.025	    61.367	    61.392	 0.461
 84.05	  924.431	-5539.317	 3056.950	  15.887	 532.386	5.067	    24.067	   201.434	  1367.222	     0.000	     0.000	     1.000	     2.120	     0.025	    60.866	    60.891	 0.451
 85.05	  924.760	-5539.682	 3057.170	  16.356	 544.789	5.331	    23.404	   198.998	  1388.749	     0.000	     0.000	     1.000	     2.140	     0.025	    60.369	    60.394	 0.440
 86.05	  925.100	-5540.052	 3057.394	  16.834	 557.433	5.605	    22.725	   196.561	  1410.444	     0.000	     0.000	     1.000	     2.160	     0.025	    59.876	    59.901	 0.429
 87.05	  925.452	-5540.429	 3057.622	  17.320	 570.321	5.889	    22.031	   194.124	  1432.308	     0.000	     0.000	     1.000	     2.181	     0.025	    59.387	    59.412	 0.417
 88.05	  925.816	-5540.812	 3057.853	  17.815	 583.456	6.184	    21.325	   191.687	  1454.344	     0.000	     0.000	     1.000	     2.202	     0.024	    58.903	    58.928	 0.404
 89.05	  926.191	-5541.200	 3058.089	  18.318	 596.840	6.490	    20.610	   189.250	  1476.553	     0.000	     0.000	     1.000	     2.223	     0.024	    58.423	    58.448	 0.390
 90.05	  926.580	-5541.594	 3058.329	  18.831	 610.474	6.807	    19.886	   186.813	  1498.938	     0.000	     0.000	     1.000	     2.244	     0.024	    57.948	    57.972	 0.377
 91.05	  926.981	-5541.995	 3058.573	  19.352	 624.362	7.136	    19.158	   184.377	  1521.500	     0.000	     0.000	     1.000	     2.266	     0.024	    57.478	    57.502	 0.363
 92.05	  927.395	-5542.401	 3058.821	  19.883	 638.504	7.476	    18.426	   181.940	  1544.241	     0.000	     0.000	     1.000	     2.287	     0.024	    57.012	    57.036	 0.349
 93.05	  927.823	-5542.813	 3059.073	  20.423	 652.919	7.829	    16.697	   179.503	  1567.164	     0.000	     0.000	     1.000	     2.311	     0.023	    56.551	    56.574	 0.338
 94.05	  928.264	-5543.232	 3059.330	  20.972	 667.591	8.194	    16.156	   177.066	  1590.270	     0.000	     0.000	     1.000	     2.332	     0.023	    56.095	    56.118	 0.324
 95.05	  928.719	-5543.656	 3059.590	  21.530	 682.518	8.571	    15.609	   174.629	  1613.562	     0.000	     0.000	     1.000	     2.354	     0.023	    55.644	    55.667	 0.310
 96.05	  929.188	-5544.087	 3059.855	  22.098	 697.701	8.961	    15.057	   172.192	  1637.043	     0.000	     0.000	     1.000	     2.375	     0.023	    55.199	    55.221	 0.297
 97.05	  929.672	-5544.524	 3060.124	  22.675	 713.141	9.365	    14.501	   169.755	  1660.714	     0.000	     0.000	     1.000	     2.397	     0.022	    54.758	    54.780	 0.284
 98.05	  930.170	-5544.967	 3060.398	  23.262	 728.840	9.781	    13.945	   167.319	  1684.579	     0.000	     0.000	     1.000	     2.419	     0.022	    54.322	    54.344	 0.271
 99.05	  930.683	-5545.416	 3060.675	  23.859	 744.800	10.212	    13.388	   164.882	  1708.639	     0.000	     0.000	     1.000	     2.441	     0.022	    53.892	    53.913	 0.259
100.05	  931.211	-5545.872	 3060.957	  24.465	 761.021	10.656	    12.833	   162.445	  1732.898	     0.000	     0.000	     1.000	     2.464	     0.022	    53.466	    53.488	 0.247
101.05	  931.755	-5546.333	 3061.244	  25.081	 777.506	11.114	    12.281	   160.008	  1757.359	     0.000	     0.000	     1.000	     2.486	     0.021	    53.046	    53.068	 0.236
102.05	  932.315	-5546.801	 3061.535	  25.707	 794.257	11.587	    11.734	   157.571	  1782.023	     0.000	     0.000	     1.000	     2.509	     0.021	    52.631	    52.653	 0.225
103.05	  932.891	-5547.276	 3061.830	  26.342	 811.274	12.074	    11.193	   155.134	  1806.894	     0.000	     0.000	     1.000	     2.532	     0.021	    52.222	    52.243	 0.215
104.05	  933.483	-5547.756	 3062.129	  26.988	 828.560	12.576	    10.659	   152.698	  1831.975	     0.000	     0.000	     1.000	     2.555	     0.021	    51.817	    51.838	 0.205
105.05	  934.092	-5548.243	 3062.434	  27.644	 846.116	13.094	    10.134	   150.261	  1857.270	     0.000	     0.000	     1.000	     2.578	     0.020	    51.418	    51.439	 0.200
106.05	  934.718	-5548.736	 3062.742	  28.310	 863.940	13.627	     9.619	   147.824	  1882.781	     0.000	     0.000	     1.000	     2.601	     0.020	    51.024	    51.044	 0.200
107.05	  935.361	-5549.236	 3063.056	  28.987	 882.033	14.176	     9.114	   145.387	  1908.512	     0.000	     0.000	     1.000	     2.624	     0.020	    50.636	    50.655	 0.200
108.05	  936.022	-5549.742	 3063.373	  29.673	 900.398	14.740	     8.622	   142.950	  1934.465	     0.000	     0.000	     1.000	     2.647	     0.019	    50.252	    50.271	 0.200
109.05	  936.700	-5550.255	 3063.696	  30.370	 919.039	15.322	     8.142	   140.513	  1960.646	     0.000	     0.000	     1.000	     2.671	     0.019	    49.873	    49.893	 0.200
110.05	  937.397	-5550.773	 3064.023	  31.078	 937.959	15.919	     7.676	   138.076	  1987.057	     0.000	     0.000	     1.000	     2.696	     0.019	    49.500	    49.519	 0.200
111.05	  938.111	-5551.299	 3064.354	  31.796	 957.161	16.534	     7.224	   135.640	  2013.702	     0.000	     0.000	     1.000	     2.720	     0.019	    49.132	    49.151	 0.200
112.05	  938.845	-5551.830	 3064.691	  32.524	 976.650	17.165	     6.787	   133.203	  2040.585	     0.000	     0.000	     1.000	     2.745	     0.019	    48.769	    48.787	 0.200
113.05	  939.597	-5552.369	 3065.032	  33.264	 996.428	17.814	     6.366	   130.766	  2067.710	     0.000	     0.000	     1.000	     2.771	     0.018	    48.411	    48.429	 0.200
114.05	  940.369	-5552.913	 3065.377	  34.014	1016.500	18.481	     5.960	   128.329	  2095.081	     0.000	     0.000	     1.000	     2.797	     0.018	    48.058	    48.076	 0.200
115.05	  941.160	-5553.465	 3065.728	  34.775	1036.868	19.165	     5.570	   125.892	  2122.703	     0.000	     0.000	     1.000	     2.823	     0.018	    47.710	    47.728	 0.200
116.05	  941.972	-5554.023	 3066.083	  35.547	1057.538	19.868	     5.197	   123.455	  2150.580	     0.000	     0.000	     1.000	     2.850	     0.018	    47.367	    47.384	 0.200
117.05	  942.803	-5554.587	 3066.443	  36.330	1078.513	20.590	     4.841	   121.019	  2178.715	     0.000	     0.000	     1.000	     2.877	     0.017	    47.029	    47.046	 0.200
118.05	  943.655	-5555.158	 3066.808	  37.124	1099.797	21.330	     4.500	   118.582	  2207.115	     0.000	     0.000	     1.000	     2.905	     0.017	    46.696	    46.713	 0.200
119.05	  944.528	-5555.736	 3067.178	  37.930	1121.395	22.089	     4.177	   116.145	  2235.784	     0.000	     0.000	     1.000	     2.933	     0.017	    46.367	    46.384	 0.200
120.05	  945.422	-5556.320	 3067.553	  38.747	1143.311	22.868	     3.869	   113.708	  2264.726	     0.000	     0.000	     1.000	     2.962	     0.017	    46.044	    46.060	 0.200
121.05	  946.337	-5556.911	 3067.932	  39.575	1165.550	23.666	     3.578	   111.271	  2293.948	     0.000	     0.000	     1.000	     2.991	     0.016	    45.725	    45.742	 0.200
122.05	  947.274	-5557.509	 3068.317	  40.415	1188.116	24.485	     3.303	   108.834	  2323.453	     0.000	     0.000	     1.000	     3.021	     0.016	    45.411	    45.427	 0.200
123.05	  948.233	-5558.114	 3068.707	  41.266	1211.015	25.324	     3.044	   106.397	  2353.248	     0.000	     0.000	     1.000	     3.051	     0.016	    45.102	    45.118	 0.200
124.05	  949.215	-5558.725	 3069.102	  42.130	1234.251	26.183	     2.799	   103.961	  2383.339	     0.000	     0.000	     1.000	     3.082	     0.016	    44.797	    44.813	 0.200
125.05	  950.219	-5559.344	 3069.502	  43.005	1257.830	27.063	     2.570	   101.524	  2413.730	     0.000	     0.000	     1.000	     3.113	     0.015	    44.497	    44.513	 0.200
126.05	  951.247	-5559.969	 3069.907	  43.892	1281.757	27.965	     2.355	    99.087	  2444.429	     0.000	     0.000	     1.000	     3.145	     0.015	    44.202	    44.217	 0.200
127.05	  952.298	-5560.601	 3070.317	  44.791	1306.038	28.888	     2.154	    96.650	  2475.440	     0.000	     0.000	     1.000	     3.178	     0.015	    43.911	    43.926	 0.200
128.05	  953.372	-5561.240	 3070.732	  45.702	1330.678	29.833	     1.966	    94.213	  2506.771	     0.000	     0.000	     1.000	     3.211	     0.015	    43.625	    43.640	 0.200
129.05	  954.471	-5561.886	 3071.153	  46.626	1355.684	30.800	     1.792	    91.776	  2538.428	     0.000	     0.000	     1.000	     3.245	     0.015	    43.343	    43.358	 0.200
130.05	  955.595	-5562.540	 3071.579	  47.562	1381.062	31.790	     1.630	    89.339	  2570.419	     0.000	     0.000	     1.000	     3.279	     0.014	    43.066	    43.080	 0.200
131.05	  956.743	-5563.200	 3072.011	  48.511	1406.818	32.803	     1.479	    86.903	  2602.749	     0.000	     0.000	     1.000	     3.315	     0.014	    42.793	    42.807	 0.200
132.05	  957.917	-5563.868	 3072.447	  49.472	1432.960	33.838	     1.340	    84.466	  2635.426	     0.000	     0.000	     1.000	     3.351	     0.014	    42.524	    42.538	 0.200
133.05	  959.117	-5564.542	 3072.890	  50.447	1459.493	34.898	     1.212	    82.029	  2668.458	     0.000	     0.000	     1.000	     3.388	     0.014	    42.259	    42.273	 0.200
134.05	  960.342	-5565.225	 3073.338	  51.434	1486.425	35.981	     1.094	    79.592	  2701.852	     0.000	     0.000	     1.000	     3.425	     0.014	    41.999	    42.013	 0.200
135.05	  961.594	-5565.914	 3073.791	  52.435	1513.765	37.089	     0.985	    77.155	  2735.616	     0.000	     0.000	     1.000	     3.464	     0.013	    41.743	    41.757	 0.200
136.05	  962.872	-5566.611	 3074.250	  53.449	1541.518	38.221	     0.885	    74.718	  2769.760	     0.000	     0.000	     1.000	     3.503	     0.013	    41.491	    41.505	 0.200
137.05	  964.178	-5567.315	 3074.715	  54.476	1569.694	39.378	     0.794	    72.282	  2804.290	     0.000	     0.000	     1.000	     3.543	     0.013	    41.244	    41.257	 0.200
138.05	  965.512	-5568.027	 3075.185	  55.517	1598.301	40.561	     0.711	    69.845	  2839.216	     0.000	     0.000	     1.000	     3.584	     0.013	    41.000	    41.013	 0.200
139.05	  966.874	-5568.747	 3075.662	  56.572	1627.347	41.769	     0.635	    67.408	  2874.548	     0.000	     0.000	     1.000	     3.626	     0.013	    40.761	    40.773	 0.200
140.05	  968.264	-5569.474	 3076.144	  57.641	1656.842	43.004	     0.566	    64.971	  2910.294	     0.000	     0.000	     1.000	     3.669	     0.012	    40.525	    40.537	 0.200
141.05	  969.683	-5570.209	 3076.632	  58.724	1686.795	44.265	     0.504	    62.534	  2946.465	     0.000	     0.000	     1.000	     3.713	     0.012	    40.293	    40.306	 0.200
142.05	  971.131	-5570.952	 3077.126	  59.822	1717.215	45.553	     0.447	    60.097	  2983.070	     0.000	     0.000	     1.000	     3.758	     0.012	    40.066	    40.078	 0.200
143.05	  972.609	-5571.703	 3077.626	  60.934	1748.112	46.868	     0.396	    57.660	  3020.121	     0.000	     0.000	     1.000	     3.804	     0.012	    39.842	    39.854	 0.200
144.05	  974.118	-5572.462	 3078.132	  62.061	1779.498	48.211	     0.350	    55.224	  3057.628	     0.000	     0.000	     1.000	     3.851	     0.012	    39.622	    39.634	 0.200
145.05	  975.657	-5573.229	 3078.645	  63.202	1811.382	49.582	     0.309	    52.787	  3095.602	     0.000	     0.000	     1.000	     3.900	     0.012	    39.406	    39.417	 0.200
146.05	  977.228	-5574.005	 3079.164	  64.359	1843.777	50.982	     0.272	    50.350	  3134.056	     0.000	     0.000	     1.000	     3.949	     0.011	    39.194	    39.205	 0.200
147.05	  978.830	-5574.788	 3079.689	  65.531	1876.693	52.411	     0.239	    47.913	  3173.001	     0.000	     0.000	     1.000	     4.000	     0.011	    38.985	    38.996	 0.200
148.05	  980.465	-5575.580	 3080.221	  66.719	1910.144	53.869	     0.209	    45.476	  3212.450	     0.000	     0.000	     1.000	     4.052	     0.011	    38.780	    38.791	 0.200
149.05	  982.132	-5576.381	 3080.759	  67.923	1944.142	55.357	     0.183	    43.039	  3252.417	     0.000	     0.000	     1.000	     4.106	     0.011	    38.579	    38.590	 0.200
150.05	  983.832	-5577.190	 3081.304	  69.143	1978.701	56.875	     0.160	    40.603	  3292.916	     0.000	     0.000	     1.000	     4.161	     0.011	    38.381	    38.392	 0.200
151.00	  985.479	-5577.967	 3081.827	  70.316	2012.063	58.347	     0.140	    38.288	  3331.894	     0.000	     0.000	     1.000	     4.214	     0.011	    38.197	    38.207	 0.200
152.00	  987.246	-5578.794	 3082.385	  71.568	2047.755	59.926	     0.121	    35.851	  3373.470	     0.000	     0.000	     1.000	     4.272	     0.010	    38.006	    38.016	 0.200
153.00	  989.048	-5579.629	 3082.950	  72.837	2084.049	61.537	     0.105	    33.414	  3415.621	     0.000	     0.000	     1.000	     4.332	     0.010	    37.819	    37.829	 0.200
154.00	  990.886	-5580.474	 3083.522	  74.123	2120.963	63.180	     0.091	    30.977	  3458.364	     0.000	     0.000	     1.000	     4.393	     0.010	    37.635	    37.645	 0.200
155.00	  992.759	-5581.328	 3084.101	  75.426	2158.512	64.856	     0.078	    28.540	  3501.714	     0.000	     0.000	     1.000	     4.456	     0.010	    37.455	    37.465	 0.200
156.00	  994.766	-5582.234	 3084.717	  76.813	2196.713	66.652	     0.067	    26.103	  3545.691	     0.000	     0.000	     0.000	     4.524	     0.019	    37.270	    37.289	 0.200
157.00	  996.696	-5583.099	 3085.305	  78.140	2192.876	68.381	     0.056	    26.103	  3545.691	     0.000	     0.000	     0.000	     0.000	     0.019	    37.104	    37.123	 0.200
158.00	  998.625	-5583.957	 3085.889	  79.459	2187.138	70.109	     0.046	    26.103	  3545.691	     0.000	     0.000	     0.000	     0.000	     0.020	    36.928	    36.947	 0.200
159.00	 1000.553	-5584.806	 3086.469	  80.768	2181.426	71.836	     0.038	    26.103	  3545.691	     0.000	     0.000	     0.000	     0.000	     0.020	    36.750	    36.770	 0.200
160.00	 1002.479	-5585.647	 3087.043	  82.069	2175.740	73.562	     0.032	    26.103	  3545.691	     0.000	     0.000	     0.000	     0.000	     0.020	    36.572	    36.592	 0.200
161.00	 1004.403	-5586.479	 3087.613	  83.359	2168.838	75.287	     0.026	    26.103	  3545.691	     0.000	     0.000	     0.000	     0.000	     0.020	    36.349	    36.369	 1.600
162.00	 1006.325	-5587.303	 3088.177	  84.640	2163.196	77.011	     0.022	    26.103	  3545.691	     0.000	     0.000	     0.000	     0.001	     1.719	    36.169	    37.888	 1.600
163.00	 1008.246	-5588.118	 3088.737	  85.912	2157.583	78.735	     0.018	    26.103	  3545.691	     0.000	     0.000	     0.000	     0.001	     3.419	    35.987	    39.407	 1.600
164.00	 1010.166	-5588.926	 3089.293	  87.175	2152.009	80.457	     0.000	    26.103	  3545.691	     0.000	     0.000	     0.000	     0.000	     5.121	    35.805	    40.926	 1.600
165.00	 1012.083	-5589.726	 3089.843	  88.430	2146.462	82.179	     0.000	    26.103	  3545.691	     0.000	     0.000	     0.000	     0.000	     6.823	    35.622	    42.445	 1.600
166.00	 1013.999	-5590.517	 3090.390	  89.675	2140.942	83.900	     0.000	    26.103	  3545.691	     0.000	     0.000	     0.000	     0.000	     8.526	    35.439	    43.964	 1.600
167.00	 1015.914	-5591.301	 3090.932	  90.912	2135.450	85.620	     0.000	    26.103	  3545.691	     0.000	     0.000	     0.000	     0.000	    10.230	    35.254	    45.483	 1.600
168.00	 1017.826	-5592.077	 3091.469	  92.140	2129.984	87.339	     0.000	    26.103	  3545.691	     0.000	     0.000	     0.000	     0.000	    11.935	    35.068	    47.002	 1.600
169.00	 1019.738	-5592.845	 3092.001	  93.359	2124.546	89.058	     0.000	    26.103	  3545.691	     0.000	     0.000	     0.000	     0.000	    13.640	    34.881	    48.521	 1.600
170.00	 1021.647	-5593.606	 3092.530	  94.570	2119.136	90.776	     0.000	    26.103	  3545.691	     0.000	     0.000	     0.000	     0.000	    15.347	    34.694	    50.040	 1.600
171.00	 1023.555	-5594.358	 3093.053	  95.771	2113.753	92.493	     0.000	    26.103	  3545.691	     0.000	     0.000	     0.000	     0.000	    17.055	    34.505	    51.559	 1.600
172.00	 1025.462	-5595.102	 3093.572	  96.964	2108.398	94.209	     0.000	    26.103	  3545.691	     0.000	     0.000	     0.000	     0.000	    18.763	    34.316	    53.078	 1.600
173.00	 1027.366	-5595.839	 3094.087	  98.148	2103.070	95.924	     0.000	    26.103	  3545.691	     0.000	     0.000	     0.000	     0.000	    20.473	    34.125	    54.597	 1.600
174.00	 1029.270	-5596.567	 3094.597	  99.324	2097.771	97.639	     0.000	    26.103	  3545.691	     0.000	     0.000	     0.000	     0.000	    22.184	    33.934	    56.116	 1.600
175.00	 1031.171	-5597.288	 3095.102	 100.490	2092.501	99.353	     0.000	    26.103	  3545.691	     0.000	     0.000	     0.000	     0.000	    23.895	    33.741	    57.634	 1.600
176.00	 1033.071	-5598.000	 3095.603	 101.648	2087.258	101.066	     0.000	    26.103	  3545.691	     0.000	     0.000	     0.000	     0.000	    25.607	    33.548	    59.153	 1.600
177.00	 1034.969	-5598.705	 3096.099	 102.797	2082.044	102.778	     0.000	    26.103	  3545.691	     0.000	     0.000	     0.000	     0.000	    27.321	    33.354	    60.672	 1.600
178.00	 1036.866	-5599.402	 3096.591	 103.937	2076.859	104.490	     0.000	    26.103	  3545.691	     0.000	     0.000	     0.000	     0.000	    29.035	    33.158	    62.191	 1.600
179.00	 1038.761	-5600.091	 3097.079	 105.068	2071.703	106.200	     0.000	    26.103	  3545.691	     0.000	     0.000	     0.000	     0.000	    30.750	    32.962	    63.710	 1.600
180.00	 1040.655	-5600.772	 3097.561	 106.191	2066.576	107.911	     0.000	    26.103	  3545.691	     0.000	     0.000	     0.000	     0.000	    32.467	    32.765	    65.228	 1.600
181.00	 1042.547	-5601.446	 3098.040	 107.305	2061.478	109.620	     0.000	    26.103	  3545.691	     0.000	     0.000	     0.000	     0.000	    34.184	    32.567	    66.747	 1.600
182.00	 1044.437	-5602.111	 3098.513	 108.410	2056.410	111.329	     0.000	    26.103	  3545.691	     0.000	     0.000	     0.000	     0.000	    35.902	    32.368	    68.266	 1.600
183.00	 1046.326	-5602.769	 3098.982	 109.506	2051.371	113.036	     0.000	    26.103	  3545.691	     0.000	     0.000	     0.000	     0.000	    37.621	    32.168	    69.784	 1.600
184.00	 1048.213	-5603.418	 3099.447	 110.594	2046.362	114.744	     0.000	    26.103	  3545.691	     0.000	     0.000	     0.000	     0.000	    39.341	    31.967	    71.303	 1.600
185.00	 1050.098	-5604.060	 3099.907	 111.673	2041.382	116.450	     0.000	    26.103	  3545.691	     0.000	     0.000	     0.000	     0.000	    41.062	    31.764	    72.821	 1.600
186.00	 1051.982	-5604.694	 3100.363	 112.743	2036.433	118.156	     0.000	    26.103	  3545.691	     0.000	     0.000	     0.000	     0.000	    42.784	    31.561	    74.340	 1.600
187.00	 1053.864	-5605.320	 3100.814	 113.804	2031.514	119.861	     0.000	    26.103	  3545.691	     0.000	     0.000	     0.000	     0.000	    44.507	    31.358	    75.858	 1.600
188.00	 1055.745	-5605.938	 3101.260	 114.857	2026.625	121.566	     0.000	    26.103	  3545.691	     0.000	     0.000	     0.000	     0.000	    46.231	    31.153	    77.376	 1.600
189.00	 1057.624	-5606.548	 3101.703	 115.900	2021.767	123.269	     0.000	    26.103	  3545.691	     0.000	     0.000	     0.000	     0.000	    47.956	    30.947	    78.894	 1.600
190.00	 1059.501	-5607.151	 3102.140	 116.935	2016.939	124.972	     0.000	    26.103	  3545.691	     0.000	     0.000	     0.000	     0.000	    49.682	    30.740	    80.411	 1.600
191.00	 1061.377	-5607.745	 3102.573	 117.962	2012.143	126.675	     0.000	    26.103	  3545.691	     0.000	     0.000	     0.000	     0.000	    51.408	    30.532	    81.928	 1.600
192.00	 1063.251	-5608.332	 3103.002	 118.979	2007.377	128.377	     0.000	    26.103	  3545.691	     0.000	     0.000	     0.000	     0.000	    53.136	    30.323	    83.444	 1.600
193.00	 1065.123	-5608.911	 3103.426	 119.988	2002.642	130.078	     0.000	    26.103	  3545.691	     0.000	     0.000	     0.000	     0.000	    54.865	    30.113	    84.958	 1.600
194.00	 1066.994	-5609.482	 3103.845	 120.989	1997.939	131.778	     0.000	    26.103	  3545.691	     0.000	     0.000	     0.000	     0.000	    56.595	    29.902	    86.467	 1.600
195.00	 1068.863	-5610.045	 3104.260	 121.980	1993.268	133.478	     0.000	    26.103	  3545.691	     0.000	     0.000	     0.000	     0.000	    58.325	    29.691	    87.963	 1.600
196.00	 1070.731	-5610.601	 3104.671	 122.963	1988.628	135.177	     0.000	    26.103	  3545.691	     0.000	     0.000	     0.000	     0.000	    60.057	    29.478	    89.341	 1.600
197.00	 1072.597	-5611.148	 3105.077	 123.937	1984.020	136.876	     0.000	    26.103	  3545.691	     0.000	     0.000	     0.000	     0.000	    61.790	    29.264	    88.846	 1.600
198.00	 1074.461	-5611.688	 3105.478	 124.902	1979.444	138.573	     0.000	    26.103	  3545.691	     0.000	     0.000	     0.000	     0.000	    63.523	    29.049	    87.384	 1.600
199.00	 1076.324	-5612.220	 3105.875	 125.858	1974.901	140.271	     0.000	    26.103	  3545.691	     0.000	     0.000	     0.000	     0.000	    65.258	    28.834	    85.881	 1.600
200.00	 1078.185	-5612.744	 3106.268	 126.806	1970.390	141.967	     0.000	    26.103	  3545.691	     0.000	     0.000	     0.000	     0.000	    66.994	    28.617	    84.369	 1.600
201.00	 1080.044	-5613.260	 3106.656	 127.745	1965.911	143.663	     0.000	    26.103	  3545.691	     0.000	     0.000	     0.000	     0.000	    68.730	    28.399	    82.854	 1.600
202.00	 1081.902	-5613.768	 3107.039	 128.676	1961.465	145.359	     0.000	    26.103	  3545.691	     0.000	     0.000	     0.000	     0.000	    70.468	    28.181	    81.338	 1.600
203.00	 1083.758	-5614.269	 3107.418	 129.598	1957.052	147.054	     0.000	    26.103	  3545.691	     0.000	     0.000	     0.000	     0.000	    72.206	    27.961	    79.821	 1.600
204.00	 1085.613	-5614.762	 3107.793	 130.511	1952.673	148.748	     0.000	    26.103	  3545.691	     0.000	     0.000	     0.000	     0.000	    73.946	    27.741	    78.304	 1.600
205.00	 1087.466	-5615.247	 3108.163	 131.415	1948.326	150.442	     0.000	    26.103	  3545.691	     0.000	     0.000	     0.000	     0.000	    75.686	    27.519	    76.786	 1.600
206.00	 1089.317	-5615.724	 3108.528	 132.310	1944.013	152.135	     0.000	    26.103	  3545.691	     0.000	     0.000	     0.000	     0.000	    77.428	    27.296	    75.268	 1.600
207.00	 1091.166	-5616.193	 3108.889	 133.197	1939.734	153.827	     0.000	    26.103	  3545.691	     0.000	     0.000	     0.000	     0.000	    79.170	    27.073	    73.750	 1.600
208.00	 1093.014	-5616.655	 3109.246	 134.076	1935.488	155.519	     0.000	    26.103	  3545.691	     0.000	     0.000	     0.000	     0.000	    80.913	    26.848	    72.231	 1.600
209.00	 1094.861	-5617.108	 3109.598	 134.945	1931.277	157.210	     0.000	    26.103	  3545.691	     0.000	     0.000	     0.000	     0.000	    82.658	    26.623	    70.713	 1.600
210.00	 1096.705	-5617.554	 3109.945	 135.806	1927.099	158.901	     0.000	    26.103	  3545.691	     0.000	     0.000	     0.000	     0.000	    84.403	    26.397	    69.195	 1.600
211.00	 1098.549	-5617.992	 3110.289	 136.658	1922.956	160.592	     0.000	    26.103	  3545.691	     0.000	     0.000	     0.000	     0.000	    86.149	    26.169	    67.676	 1.600
212.00	 1100.390	-5618.422	 3110.627	 137.502	1918.848	162.281	     0.000	    26.103	  3545.691	     0.000	     0.000	     0.000	     0.000	    87.896	    25.941	    66.158	 1.600
213.00	 1102.230	-5618.845	 3110.961	 138.336	1914.774	163.970	     0.000	    26.103	  3545.691	     0.000	     0.000	     0.000	     0.000	    89.645	    25.711	    64.639	 1.600
214.00	 1104.068	-5619.260	 3111.291	 139.162	1910.735	165.659	     0.000	    26.103	  3545.691	     0.000	     0.000	     0.000	     0.000	    91.394	    25.481	    63.120	 1.600
215.00	 1105.904	-5619.667	 3111.616	 139.980	1906.731	167.347	     0.000	    26.103	  3545.691	     0.000	     0.000	     0.000	     0.000	    93.144	    25.250	    61.602	 1.600
216.00	 1107.739	-5620.066	 3111.937	 140.788	1902.763	169.035	     0.000	    26.103	  3545.691	     0.000	     0.000	     0.000	     0.000	    94.895	    25.018	    60.083	 1.600
217.00	 1109.572	-5620.457	 3112.253	 141.589	1898.829	170.722	     0.000	    26.103	  3545.691	     0.000	     0.000	     0.000	     0.000	    96.647	    24.785	    58.565	 1.600
218.00	 1111.404	-5620.840	 3112.565	 142.380	1894.932	172.408	     0.000	    26.103	  3545.691	     0.000	     0.000	     0.000	     0.000	    98.400	    24.550	    57.046	 1.600
219.00	 1113.234	-5621.216	 3112.872	 143.163	1891.070	174.095	     0.000	    26.103	  3545.691	     0.000	     0.000	     0.000	     0.000	   100.154	    24.315	    55.527	 1.600
220.00	 1115.062	-5621.584	 3113.175	 143.937	1887.244	175.780	     0.000	    26.103	  3545.691	     0.000	     0.000	     0.000	     0.000	   101.908	    24.079	    54.009	 1.600
221.00	 1116.889	-5621.944	 3113.473	 144.702	1883.454	177.465	     0.000	    26.103	  3545.691	     0.000	     0.000	     0.000	     0.000	   103.664	    23.842	    52.490	 1.600
222.00	 1118.714	-5622.297	 3113.767	 145.459	1879.701	179.150	     0.000	    26.103	  3545.691	     0.000	     0.000	     0.000	     0.000	   105.421	    23.605	    50.971	 1.600
223.00	 1120.537	-5622.641	 3114.056	 146.207	1875.984	180.834	     0.000	    26.103	  3545.691	     0.000	     0.000	     0.000	     0.000	   107.178	    23.366	    49.453	 1.600
224.00	 1122.359	-5622.978	 3114.341	 146.946	1872.304	182.517	     0.000	    26.103	  3545.691	     0.000	     0.000	     0.000	     0.000	   108.937	    23.126	    47.934	 1.600
225.00	 1124.179	-5623.307	 3114.622	 147.677	1868.660	184.201	     0.000	    26.103	  3545.691	     0.000	     0.000	     0.000	     0.000	   110.697	    22.885	    46.415	 1.600
226.00	 1125.997	-5623.629	 3114.898	 148.399	1865.054	185.883	     0.000	    26.103	  3545.691	     0.000	     0.000	     0.000	     0.000	   112.457	    22.644	    44.897	 1.600
227.00	 1127.814	-5623.942	 3115.169	 149.112	1861.485	187.566	     0.000	    26.103	  3545.691	     0.000	     0.000	     0.000	     0.000	   114.218	    22.401	    43.378	 1.600
228.00	 1129.629	-5624.248	 3115.436	 149.817	1857.953	189.247	     0.000	    26.103	  3545.691	     0.000	     0.000	     0.000	     0.000	   115.980	    22.158	    41.859	 1.600
229.00	 1131.442	-5624.546	 3115.699	 150.513	1854.459	190.929	     0.000	    26.103	  3545.691	     0.000	     0.000	     0.000	     0.000	   117.744	    21.913	    40.341	 1.600
230.00	 1133.254	-5624.836	 3115.957	 151.201	1851.002	192.609	     0.000	    26.103	  3545.691	     0.000	     0.000	     0.000	     0.000	   119.508	    21.668	    38.822	 1.600
231.00	 1135.064	-5625.119	 3116.210	 151.879	1847.584	194.290	     0.000	    26.103	  3545.691	     0.000	     0.000	     0.000	     0.000	   121.273	    21.422	    37.303	 1.600
232.00	 1136.872	-5625.393	 3116.460	 152.550	1844.203	195.970	     0.000	    26.103	  3545.691	     0.000	     0.000	     0.000	     0.000	   123.038	    21.175	    35.785	 1.600
233.00	 1138.679	-5625.660	 3116.704	 153.211	1840.861	197.650	     0.000	    26.103	  3545.691	     0.000	     0.000	     0.000	     0.000	   124.805	    20.927	    34.266	 1.600
234.00	 1140.484	-5625.919	 3116.945	 153.864	1837.557	199.329	     0.000	    26.103	  3545.691	     0.000	     0.000	     0.000	     0.000	   126.573	    20.678	    32.747	 1.600
235.00	 1142.288	-5626.171	 3117.180	 154.508	1834.292	201.007	     0.000	    26.103	  3545.691	     0.000	     0.000	     0.000	     0.000	   128.341	    20.428	    31.229	 1.600
236.00	 1144.090	-5626.415	 3117.412	 155.144	1831.065	202.686	     0.000	    26.103	  3545.691	     0.000	     0.000	     0.000	     0.000	   130.111	    20.178	    29.710	 1.600
237.00	 1145.890	-5626.651	 3117.639	 155.771	1827.878	204.364	     0.000	    26.103	  3545.691	     0.000	     0.000	     0.000	     0.000	   131.881	    19.926	    28.191	 1.600
238.00	 1147.688	-5626.879	 3117.861	 156.389	1824.729	206.041	     0.000	    26.103	  3545.691	     0.000	     0.000	     0.000	     0.000	   133.652	    19.674	    26.673	 1.600
239.00	 1149.485	-5627.099	 3118.079	 156.999	1821.620	207.718	     0.000	    26.103	  3545.691	     0.000	     0.000	     0.000	     0.000	   135.424	    19.421	    25.154	 1.600
240.00	 1151.280	-5627.312	 3118.293	 157.600	1818.550	209.395	     0.000	    26.103	  3545.691	     0.000	     0.000	     0.000	     0.000	   137.197	    19.167	    23.635	 1.600
241.00	 1153.073	-5627.517	 3118.502	 158.192	1815.520	211.072	     0.000	    26.103	  3545.691	     0.000	     0.000	     0.000	     0.000	   138.970	    18.912	    22.117	 1.600
242.00	 1154.865	-5627.714	 3118.706	 158.776	1812.530	212.748	     0.000	    26.103	  3545.691	     0.000	     0.000	     0.000	     0.000	   140.745	    18.656	    20.598	 1.600
243.00	 1156.655	-5627.904	 3118.907	 159.351	1809.579	214.423	     0.000	    26.103	  3545.691	     0.000	     0.000	     0.000	     0.000	   142.520	    18.399	    19.079	 1.600
244.00	 1158.444	-5628.085	 3119.102	 159.917	1806.669	216.099	     0.000	    26.103	  3545.691	     0.000	     0.000	     0.000	     0.000	  -144.296	    18.142	    17.561	 1.600
245.00	 1160.230	-5628.259	 3119.294	 160.475	1803.799	217.774	     0.000	    26.103	  3545.691	     0.000	     0.000	     0.000	     0.000	  -146.073	    17.884	    16.042	 1.600
246.00	 1162.016	-5628.426	 3119.480	 161.024	1800.970	219.448	     0.000	    26.103	  3545.691	     0.000	     0.000	     0.000	     0.000	  -147.851	    17.625	    14.523	 1.600
247.00	 1163.799	-5628.584	 3119.663	 161.565	1798.181	221.122	     0.000	    26.103	  3545.691	     0.000	     0.000	     0.000	     0.000	  -149.629	    17.365	    13.005	 1.600
248.00	 1165.581	-5628.735	 3119.841	 162.097	1795.432	222.796	     0.000	    26.103	  3545.691	     0.000	     0.000	     0.000	     0.000	  -151.408	    17.104	    11.486	 1.600
249.00	 1167.361	-5628.878	 3120.014	 162.620	1792.725	224.470	     0.000	    26.103	  3545.691	     0.000	     0.000	     0.000	     0.000	  -153.189	    16.843	     9.968	 1.600
250.00	 1169.139	-5629.013	 3120.183	 163.135	1790.059	226.143	     0.000	    26.103	  3545.691	     0.000	     0.000	     0.000	     0.000	  -154.969	    16.581	     8.449	 1.600
251.00	 1170.916	-5629.141	 3120.348	 163.641	1787.434	227.816	     0.000	    26.103	  3545.691	     0.000	     0.000	     0.000	     0.000	  -156.751	    16.318	     6.930	 1.600
252.00	 1172.691	-5629.261	 3120.508	 164.139	1784.850	229.488	     0.000	    26.103	  3545.691	     0.000	     0.000	     0.000	     0.000	  -158.533	    16.054	     5.412	 1.600
253.00	 1174.464	-5629.373	 3120.664	 164.628	1782.308	231.161	     0.000	    26.103	  3545.691	     0.000	     0.000	     0.000	     0.000	  -160.317	    15.790	     3.893	 1.600
254.00	 1176.236	-5629.478	 3120.815	 165.108	1779.808	232.833	     0.000	    26.103	  3545.691	     0.000	     0.000	     0.000	     0.000	  -162.100	    15.525	     2.374	 1.600
255.00	 1178.006	-5629.574	 3120.962	 165.580	1777.349	234.504	     0.000	    26.103	  3545.691	     0.000	     0.000	     0.000	     0.000	  -163.885	    15.259	     0.856	 1.600
256.00	 1179.774	-5629.663	 3121.104	 166.043	1774.933	236.176	     0.000	    26.103	  3545.691	     0.000	     0.000	     0.000	     0.000	  -165.670	    14.992	    -0.663	 1.600
257.00	 1181.541	-5629.745	 3121.242	 166.497	1772.558	237.847	     0.000	    26.103	  3545.691	     0.000	     0.000	     0.000	     0.000	  -167.456	    14.725	    -2.182	 1.600
258.00	 1183.306	-5629.818	 3121.376	 166.943	1770.226	239.518	     0.000	    26.103	  3545.691	     0.000	     0.000	     0.000	     0.000	  -169.243	    14.457	    -3.700	 1.600
259.00	 1185.069	-5629.884	 3121.505	 167.380	1767.936	241.188	     0.000	    26.103	  3545.691	     0.000	     0.000	     0.000	     0.000	  -171.031	    14.188	    -5.219	 1.600
260.00	 1186.830	-5629.942	 3121.630	 167.809	1765.689	242.858	     0.000	    26.103	  3545.691	     0.000	     0.000	     0.000	     0.000	  -172.819	    13.918	    -6.737	 1.600
261.00	 1188.590	-5629.993	 3121.750	 168.229	1763.485	244.528	     0.000	    26.103	  3545.691	     0.000	     0.000	     0.000	     0.000	  -174.608	    13.648	    -8.256	 1.600
262.00	 1190.349	-5630.035	 3121.866	 168.640	1761.323	246.198	     0.000	    26.103	  3545.691	     0.000	     0.000	     0.000	     0.000	  -176.397	    13.377	    -9.775	 1.600
263.00	 1192.105	-5630.070	 3121.977	 169.043	1759.204	247.867	     0.000	    26.103	  3545.691	     0.000	     0.000	     0.000	     0.000	  -178.187	    13.106	   -11.293	 1.600
264.00	 1193.860	-5630.098	 3122.084	 169.437	1757.129	249.537	     0.000	    26.103	  3545.691	     0.000	     0.000	     0.000	     0.000	  -179.971	    12.834	   -12.863	 1.600
265.00	 1195.613	-5630.117	 3122.186	 169.823	1755.097	251.206	     0.000	    26.103	  3545.691	     0.000	     0.000	     0.000	     0.000	  -179.971	    12.561	   -12.590	 1.600
266.00	 1197.364	-5630.129	 3122.284	 170.200	1753.108	252.874	     0.000	    26.103	  3545.691	     0.000	     0.000	     0.000	     0.000	  -179.971	    12.288	   -12.317	 1.600
267.00	 1199.114	-5630.133	 3122.378	 170.568	1751.162	254.543	     0.000	    26.103	  3545.691	     0.000	     0.000	     0.000	     0.000	  -179.971	    12.014	   -12.043	 1.600
268.00	 1200.862	-5630.130	 3122.467	 170.928	1749.260	256.211	     0.000	    26.103	  3545.691	     0.000	     0.000	     0.000	     0.000	  -179.971	    11.739	   -11.769	 1.600
269.00	 1202.608	-5630.118	 3122.552	 171.279	1747.402	257.879	     0.000	    26.103	  3545.691	     0.000	     0.000	     0.000	     0.000	  -179.971	    11.464	   -11.494	 1.600
270.00	 1204.353	-5630.099	 3122.632	 171.622	1745.588	259.547	     0.000	    26.103	  3545.691	     0.000	     0.000	     0.000	     0.000	  -179.971	    11.189	   -11.218	 1.600
271.00	 1206.096	-5630.073	 3122.708	 171.956	1743.818	261.214	     0.000	    26.103	  3545.691	     0.000	     0.000	     0.000	     0.000	  -179.970	    10.912	   -10.942	 1.600
272.00	 1207.837	-5630.038	 3122.780	 172.281	1742.091	262.882	     0.000	    26.103	  3545.691	     0.000	     0.000	     0.000	     0.000	  -179.970	    10.636	   -10.665	 1.600
273.00	 1209.577	-5629.996	 3122.847	 172.598	1740.409	264.549	     0.000	    26.103	  3545.691	     0.000	     0.000	     0.000	     0.000	  -179.970	    10.358	   -10.388	 1.600
274.00	 1211.315	-5629.947	 3122.909	 172.906	1738.772	266.216	     0.000	    26.103	  3545.691	     0.000	     0.000	     0.000	     0.000	  -179.970	    10.080	   -10.110	 1.600
275.00	 1213.051	-5629.889	 3122.968	 173.206	1737.179	267.883	     0.000	    26.103	  3545.691	     0.000	     0.000	     0.000	     0.000	  -179.970	     9.802	    -9.832	 1.600
276.00	 1214.785	-5629.824	 3123.021	 173.497	1735.630	269.549	     0.000	    26.103	  3545.691	     0.000	     0.000	     0.000	     0.000	  -179.970	     9.523	    -9.553	 1.600
277.00	 1216.518	-5629.751	 3123.071	 173.780	1734.126	271.215	     0.000	    26.103	  3545.691	     0.000	     0.000	     0.000	     0.000	  -179.970	     9.244	    -9.274	 1.600
278.00	 1218.249	-5629.671	 3123.116	 174.053	1732.666	272.882	     0.000	    26.103	  3545.691	     0.000	     0.000	     0.000	     0.000	  -179.970	     8.964	    -8.994	 1.600
279.00	 1219.978	-5629.582	 3123.156	 174.319	1731.252	274.548	     0.000	    26.103	  3545.691	     0.000	     0.000	     0.000	     0.000	  -179.970	     8.684	    -8.714	 1.600
280.00	 1221.706	-5629.486	 3123.192	 174.575	1729.882	276.214	     0.000	    26.103	  3545.691	     0.000	     0.000	     0.000	     0.000	  -179.970	     8.403	    -8.433	 1.600
281.00	 1223.432	-5629.383	 3123.224	 174.823	1728.558	277.879	     0.000	    26.103	  3545.691	     0.000	     0.000	     0.000	     0.000	  -179.970	     8.122	    -8.152	 1.600
282.00	 1225.156	-5629.272	 3123.251	 175.063	1727.278	279.545	     0.000	    26.103	  3545.691	     0.000	     0.000	     0.000	     0.000	  -179.970	     7.840	    -7.870	 1.600
283.00	 1226.878	-5629.152	 3123.274	 175.294	1726.044	281.210	     0.000	    26.103	  3545.691	     0.000	     0.000	     0.000	     0.000	  -179.970	     7.558	    -7.588	 1.600
284.00	 1228.599	-5629.026	 3123.292	 175.516	1724.855	282.876	     0.000	    26.103	  3545.691	     0.000	     0.000	     0.000	     0.000	  -179.970	     7.276	    -7.306	 1.600
285.00	 1230.318	-5628.891	 3123.306	 175.730	1723.711	284.541	     0.000	    26.103	  3545.691	     0.000	     0.000	     0.000	     0.000	  -179.970	     6.993	    -7.023	 1.600
286.00	 1232.035	-5628.749	 3123.316	 175.935	1722.613	286.206	     0.000	    26.103	  3545.691	     0.000	     0.000	     0.000	     0.000	  -179.970	     6.710	    -6.740	 1.600
287.00	 1233.751	-5628.600	 3123.321	 176.131	1721.560	287.871	     0.000	    26.103	  3545.691	     0.000	     0.000	     0.000	     0.000	  -179.970	     6.426	    -6.456	 1.600
288.00	 1235.465	-5628.442	 3123.321	 176.319	1720.553	289.536	     0.000	    26.103	  3545.691	     0.000	     0.000	     0.000	     0.000	  -179.970	     6.142	    -6.173	 1.600
289.00	 1237.177	-5628.277	 3123.318	 176.499	1719.592	291.200	     0.000	    26.103	  3545.691	     0.000	     0.000	     0.000	     0.000	  -179.970	     5.858	    -5.889	 1.600
290.00	 1238.887	-5628.104	 3123.310	 176.669	1718.676	292.865	     0.000	    26.103	  3545.691	     0.000	     0.000	     0.000	     0.000	  -179.970	     5.574	    -5.604	 1.600
291.00	 1240.596	-5627.924	 3123.297	 176.832	1717.806	294.529	     0.000	    26.103	  3545.691	     0.000	     0.000	     0.000	     0.000	  -179.970	     5.289	    -5.319	 1.600
292.00	 1242.303	-5627.735	 3123.280	 176.985	1716.982	296.194	     0.000	    26.103	  3545.691	     0.000	     0.000	     0.000	     0.000	  -179.970	     5.004	    -5.034	 1.600
293.00	 1244.008	-5627.539	 3123.259	 177.130	1716.204	297.858	     0.000	    26.103	  3545.691	     0.000	     0.000	     0.000	     0.000	  -179.970	     4.719	    -4.749	 1.600
294.00	 1245.712	-5627.336	 3123.233	 177.267	1715.472	299.522	     0.000	    26.103	  3545.691	     0.000	     0.000	     0.000	     0.000	  -179.970	     4.433	    -4.464	 1.600
295.00	 1247.414	-5627.125	 3123.203	 177.395	1714.786	301.186	     0.000	    26.103	  3545.691	     0.000	     0.000	     0.000	     0.000	  -179.970	     4.147	    -4.178	 1.600
296.00	 1249.114	-5626.906	 3123.168	 177.514	1714.145	302.850	     0.000	    26.103	  3545.691	     0.000	     0.000	     0.000	     0.000	  -179.970	     3.861	    -3.892	 1.600
297.00	 1250.812	-5626.679	 3123.129	 177.625	1713.551	304.514	     0.000	    26.103	  3545.691	     0.000	     0.000	     0.000	     0.000	  -179.970	     3.575	    -3.606	 1.600
298.00	 1252.509	-5626.445	 3123.085	 177.727	1713.003	306.178	     0.000	    26.103	  3545.691	     0.000	     0.000	     0.000	     0.000	  -179.969	     3.289	    -3.319	 1.600
299.00	 1254.204	-5626.203	 3123.037	 177.820	1712.502	307.842	     0.000	    26.103	  3545.691	     0.000	     0.000	     0.000	     0.000	  -179.969	     3.002	    -3.033	 1.600
300.00	 1255.897	-5625.953	 3122.985	 177.905	1712.046	309.505	     0.000	    26.103	  3545.691	     0.000	     0.000	     0.000	     0.000	  -179.969	     2.715	    -2.746	 1.600
301.00	 1257.588	-5625.696	 3122.928	 177.982	1711.637	311.169	     0.000	    26.103	  3545.691	     0.000	     0.000	     0.000	     0.000	  -179.969	     2.428	    -2.459	 1.600
302.00	 1259.278	-5625.431	 3122.867	 178.049	1711.274	312.833	     0.000	    26.103	  3545.691	     0.000	     0.000	     0.000	     0.000	  -179.969	     2.141	    -2.172	 1.600
303.00	 1260.966	-5625.158	 3122.801	 178.109	1710.957	314.496	     0.000	    26.103	  3545.691	     0.000	     0.000	     0.000	     0.000	  -179.969	     1.854	    -1.885	 1.600
304.00	 1262.652	-5624.878	 3122.731	 178.159	1710.687	316.160	     0.000	    26.103	  3545.691	     0.000	     0.000	     0.000	     0.000	  -179.969	     1.567	    -1.598	 1.600
305.00	 1264.337	-5624.589	 3122.657	 178.201	1710.463	317.823	     0.000	    26.103	  3545.691	     0.000	     0.000	     0.000	     0.000	  -179.969	     1.280	    -1.310	 1.600
306.00	 1266.020	-5624.294	 3122.578	 178.235	1710.285	319.487	     0.000	    26.103	  3545.691	     0.000	     0.000	     0.000	     0.000	  -179.969	     0.992	    -1.023	 1.600
307.00	 1267.701	-5623.990	 3122.495	 178.260	1710.154	321.150	     0.000	    26.103	  3545.691	     0.000	     0.000	     0.000	     0.000	  -179.969	     0.705	    -0.736	 1.600
308.00	 1269.380	-5623.679	 3122.407	 178.276	1710.069	322.814	     0.000	    26.103	  3545.691	     0.000	     0.000	     0.000	     0.000	  -179.969	     0.417	    -0.448	 1.600
309.00	 1271.058	-5623.360	 3122.315	 178.284	1710.031	324.477	     0.000	    26.103	  3545.691	     0.000	     0.000	     0.000	     0.000	  -179.969	     0.130	    -0.161	 1.600
310.00	 1272.733	-5623.034	 3122.219	 178.283	1710.039	326.141	     0.000	    26.103	  3545.691	     0.000	     0.000	     0.000	     0.000	   179.969	    -0.158	     0.127	 1.600
311.00	 1274.407	-5622.700	 3122.118	 178.273	1710.093	327.804	     0.000	    26.103	  3545.691	     0.000	     0.000	     0.000	     0.000	   179.969	    -0.445	     0.414	 1.600
312.00	 1276.080	-5622.358	 3122.012	 178.255	1710.194	329.468	     0.000	    26.103	  3545.691	     0.000	     0.000	     0.000	     0.000	   179.969	    -0.732	     0.702	 1.600
313.00	 1277.750	-5622.008	 3121.903	 178.229	1710.341	331.131	     0.000	    26.103	  3545.691	     0.000	     0.000	     0.000	     0.000	   179.969	    -1.020	     0.989	 1.600
314.00	 1279.419	-5621.651	 3121.788	 178.193	1710.534	332.795	     0.000	    26.103	  3545.691	     0.000	     0.000	     0.000	     0.000	   179.969	    -1.307	     1.277	 1.600
315.00	 1281.086	-5621.286	 3121.670	 178.150	1710.774	334.458	     0.000	    26.103	  3545.691	     0.000	     0.000	     0.000	     0.000	   179.969	    -1.595	     1.564	 1.600
316.00	 1282.751	-5620.914	 3121.547	 178.097	1711.060	336.122	     0.000	    26.103	  3545.691	     0.000	     0.000	     0.000	     0.000	   179.969	    -1.882	     1.851	 1.600
317.00	 1284.415	-5620.534	 3121.419	 178.036	1711.392	337.786	     0.000	    26.103	  3545.691	     0.000	     0.000	     0.000	     0.000	   179.969	    -2.169	     2.138	 1.600
318.00	 1286.077	-5620.146	 3121.288	 177.967	1711.771	339.449	     0.000	    26.103	  3545.691	     0.000	     0.000	     0.000	     0.000	   179.969	    -2.456	     2.425	 1.600
319.00	 1287.737	-5619.750	 3121.151	 177.889	1712.196	341.113	     0.000	    26.103	  3545.691	     0.000	     0.000	     0.000	     0.000	   179.969	    -2.743	     2.712	 1.600
320.00	 1289.395	-5619.347	 3121.011	 177.802	1712.667	342.777	     0.000	    26.103	  3545.691	     0.000	     0.000	     0.000	     0.000	   179.969	    -3.029	     2.999	 1.600
321.00	 1291.052	-5618.936	 3120.866	 177.707	1713.185	344.440	     0.000	    26.103	  3545.691	     0.000	     0.000	     0.000	     0.000	   179.969	    -3.316	     3.286	 1.600
322.00	 1292.706	-5618.517	 3120.716	 177.603	1713.749	346.104	     0.000	    26.103	  3545.691	     0.000	     0.000	     0.000	     0.000	   179.970	    -3.602	     3.572	 1.600
323.00	 1294.359	-5618.091	 3120.562	 177.491	1714.358	347.768	     0.000	    26.103	  3545.691	     0.000	     0.000	     0.000	     0.000	   179.970	    -3.889	     3.858	 1.600
324.00	 1296.011	-5617.657	 3120.404	 177.370	1715.014	349.432	     0.000	    26.103	  3545.691	     0.000	     0.000	     0.000	     0.000	   179.970	    -4.175	     4.144	 1.600
325.00	 1297.660	-5617.215	 3120.241	 177.240	1715.716	351.096	     0.000	    26.103	  3545.691	     0.000	     0.000	     0.000	     0.000	   179.970	    -4.460	     4.430	 1.600
326.00	 1299.308	-5616.766	 3120.074	 177.102	1716.464	352.761	     0.000	    26.103	  3545.691	     0.000	     0.000	     0.000	     0.000	   179.970	    -4.746	     4.715	 1.600
327.00	 1300.954	-5616.309	 3119.902	 176.955	1717.258	354.425	     0.000	    26.103	  3545.691	     0.000	     0.000	     0.000	     0.000	   179.970	    -5.031	     5.001	 1.600
328.00	 1302.598	-5615.844	 3119.727	 176.800	1718.097	356.089	     0.000	    26.103	  3545.691	     0.000	     0.000	     0.000	     0.000	   179.970	    -5.316	     5.286	 1.600
329.00	 1304.240	-5615.372	 3119.546	 176.636	1718.983	357.754	     0.000	    26.103	  3545.691	     0.000	     0.000	     0.000	     0.000	   179.970	    -5.601	     5.571	 1.600
330.00	 1305.881	-5614.892	 3119.361	 176.463	1719.914	359.418	     0.000	    26.103	  3545.691	     0.000	     0.000	     0.000	     0.000	   179.970	    -5.885	     5.855	 1.600
331.00	 1307.520	-5614.404	 3119.172	 176.282	1720.891	361.083	     0.000	    26.103	  3545.691	     0.000	     0.000	     0.000	     0.000	   179.970	    -6.169	     6.139	 1.600
332.00	 1309.157	-5613.909	 3118.978	 176.093	1721.914	362.748	     0.000	    26.103	  3545.691	     0.000	     0.000	     0.000	     0.000	   179.970	    -6.453	     6.423	 1.600
333.00	 1310.792	-5613.406	 3118.780	 175.894	1722.982	364.413	     0.000	    26.103	  3545.691	     0.000	     0.000	     0.000	     0.000	   179.970	    -6.737	     6.706	 1.600
334.00	 1312.426	-5612.895	 3118.578	 175.688	1724.096	366.078	     0.000	    26.103	  3545.691	     0.000	     0.000	     0.000	     0.000	   179.970	    -7.020	     6.990	 1.600
335.00	 1314.058	-5612.377	 3118.371	 175.472	1725.255	367.743	     0.000	    26.103	  3545.691	     0.000	     0.000	     0.000	     0.000	   179.970	    -7.302	     7.272	 1.600
336.00	 1315.688	-5611.851	 3118.160	 175.248	1726.459	369.408	     0.000	    26.103	  3545.691	     0.000	     0.000	     0.000	     0.000	   179.970	    -7.585	     7.555	 1.600
337.00	 1317.316	-5611.317	 3117.944	 175.015	1727.709	371.074	     0.000	    26.103	  3545.691	     0.000	     0.000	     0.000	     0.000	   179.970	    -7.867	     7.837	 1.600
338.00	 1318.942	-5610.775	 3117.724	 174.774	1729.004	372.739	     0.000	    26.103	  3545.691	     0.000	     0.000	     0.000	     0.000	   179.970	    -8.148	     8.118	 1.600
339.00	 1320.567	-5610.226	 3117.499	 174.524	1730.343	374.405	     0.000	    26.103	  3545.691	     0.000	     0.000	     0.000	     0.000	   179.970	    -8.429	     8.399	 1.600
340.00	 1322.190	-5609.669	 3117.270	 174.266	1731.728	376.071	     0.000	    26.103	  3545.691	     0.000	     0.000	     0.000	     0.000	   179.970	    -8.710	     8.680	 1.600
341.00	 1323.811	-5609.105	 3117.037	 173.999	1733.158	377.737	     0.000	    26.103	  3545.691	     0.000	     0.000	     0.000	     0.000	   179.970	    -8.990	     8.960	 1.600
342.00	 1325.430	-5608.533	 3116.799	 173.724	1734.633	379.404	     0.000	    26.103	  3545.691	     0.000	     0.000	     0.000	     0.000	   179.970	    -9.270	     9.240	 1.600
343.00	 1327.048	-5607.953	 3116.557	 173.439	1736.152	381.070	     0.000	    26.103	  3545.691	     0.000	     0.000	     0.000	     0.000	   179.970	    -9.549	     9.520	 1.600
344.00	 1328.664	-5607.365	 3116.310	 173.147	1737.716	382.737	     0.000	    26.103	  3545.691	     0.000	     0.000	     0.000	     0.000	   179.970	    -9.828	     9.798	 1.600
345.00	 1330.278	-5606.770	 3116.059	 172.845	1739.324	384.404	     0.000	    26.103	  3545.691	     0.000	     0.000	     0.000	     0.000	   179.970	   -10.106	    10.077	 1.600
346.00	 1331.890	-5606.167	 3115.804	 172.535	1740.977	386.071	     0.000	    26.103	  3545.691	     0.000	     0.000	     0.000	     0.000	   179.970	   -10.384	    10.355	 1.600
347.00	 1333.500	-5605.556	 3115.544	 172.217	1742.674	387.738	     0.000	    26.103	  3545.691	     0.000	     0.000	     0.000	     0.000	   179.970	   -10.662	    10.632	 1.600
348.00	 1335.109	-5604.938	 3115.280	 171.890	1744.415	389.405	     0.000	    26.103	  3545.691	     0.000	     0.000	     0.000	     0.000	   179.970	   -10.938	    10.909	 1.600
349.00	 1336.715	-5604.312	 3115.011	 171.554	1746.200	391.073	     0.000	    26.103	  3545.691	     0.000	     0.000	     0.000	     0.000	   179.971	   -11.214	    11.185	 1.600
350.00	 1338.320	-5603.678	 3114.738	 171.210	1748.029	392.741	     0.000	    26.103	  3545.691	     0.000	     0.000	     0.000	     0.000	   179.971	   -11.490	    11.461	 1.600
351.00	 1339.924	-5603.037	 3114.460	 170.857	1749.902	394.409	     0.000	    26.103	  3545.691	     0.000	     0.000	     0.000	     0.000	   179.971	   -11.765	    11.736	 1.600
352.00	 1341.525	-5602.388	 3114.178	 170.495	1751.819	396.077	     0.000	    26.103	  3545.691	     0.000	     0.000	     0.000	     0.000	   179.971	   -12.040	    12.010	 1.600
353.00	 1343.124	-5601.731	 3113.892	 170.125	1753.779	397.746	     0.000	    26.103	  3545.691	     0.000	     0.000	     0.000	     0.000	   179.971	   -12.313	    12.284	 1.600
354.00	 1344.722	-5601.067	 3113.601	 169.746	1755.783	399.414	     0.000	    26.103	  3545.691	     0.000	     0.000	     0.000	     0.000	   179.971	   -12.587	    12.557	 1.600
355.00	 1346.318	-5600.395	 3113.306	 169.359	1757.830	401.083	     0.000	    26.103	  3545.691	     0.000	     0.000	     0.000	     0.000	   179.971	   -12.859	    12.830	 1.600
356.00	 1347.912	-5599.715	 3113.006	 168.963	1759.920	402.753	     0.000	    26.103	  3545.691	     0.000	     0.000	     0.000	     0.000	   179.971	   -13.131	    13.102	 1.600
357.00	 1349.505	-5599.027	 3112.702	 168.559	1762.053	404.422	     0.000	    26.103	  3545.691	     0.000	     0.000	     0.000	     0.000	   179.971	   -13.403	    13.374	 1.600
358.00	 1351.095	-5598.332	 3112.394	 168.146	1764.229	406.092	     0.000	    26.103	  3545.691	     0.000	     0.000	     0.000	     0.000	   179.971	   -13.673	    13.644	 1.600
359.00	 1352.684	-5597.629	 3112.081	 167.724	1766.448	407.762	     0.000	    26.103	  3545.691	     0.000	     0.000	     0.000	     0.000	   179.971	   -13.943	    13.914	 1.600
360.00	 1354.271	-5596.919	 3111.764	 167.293	1768.710	409.432	     0.000	    26.103	  3545.691	     0.000	     0.000	     0.000	     0.000	   179.971	   -14.213	    14.184	 1.600
361.00	 1355.856	-5596.200	 3111.442	 166.854	1771.014	411.103	     0.000	    26.103	  3545.691	     0.000	     0.000	     0.000	     0.000	   179.971	   -14.481	    14.452	 1.600
362.00	 1357.439	-5595.474	 3111.116	 166.407	1773.360	412.774	     0.000	    26.103	  3545.691	     0.000	     0.000	     0.000	     0.000	   179.971	   -14.749	    14.721	 1.600
363.00	 1359.021	-5594.741	 3110.785	 165.951	1775.749	414.445	     0.000	    26.103	  3545.691	     0.000	     0.000	     0.000	     0.000	   179.971	   -15.016	    14.988	 1.600
364.00	 1360.600	-5593.999	 3110.450	 165.486	1778.180	416.116	     0.000	    26.103	  3545.691	     0.000	     0.000	     0.000	     0.000	   179.972	   -15.283	    15.254	 1.600
365.00	 1362.178	-5593.250	 3110.111	 165.013	1780.652	417.788	     0.000	    26.103	  3545.691	     0.000	     0.000	     0.000	     0.000	   179.972	   -15.549	    15.520	 1.600
366.00	 1363.754	-5592.494	 3109.767	 164.531	1783.167	419.460	     0.000	    26.103	  3545.691	     0.000	     0.000	     0.000	     0.000	   179.972	   -15.814	    15.785	 1.600
367.00	 1365.328	-5591.729	 3109.418	 164.040	1785.723	421.133	     0.000	    26.103	  3545.691	     0.000	     0.000	     0.000	     0.000	   179.972	   -16.078	    16.050	 1.600
368.00	 1366.901	-5590.957	 3109.066	 163.541	1788.320	422.805	     0.000	    26.103	  3545.691	     0.000	     0.000	     0.000	     0.000	   179.972	   -16.342	    16.314	 1.600
369.00	 1368.471	-5590.177	 3108.708	 163.033	1790.959	424.478	     0.000	    26.103	  3545.691	     0.000	     0.000	     0.000	     0.000	   179.972	   -16.605	    16.576	 1.600
370.00	 1370.040	-5589.390	 3108.347	 162.516	1793.639	426.152	     0.000	    26.103	  3545.691	     0.000	     0.000	     0.000	     0.000	   179.972	   -16.867	    16.839	 1.600
371.00	 1371.607	-5588.594	 3107.981	 161.991	1796.360	427.825	     0.000	    26.103	  3545.691	     0.000	     0.000	     0.000	     0.000	   179.972	   -17.128	    17.100	 1.600
372.00	 1373.172	-5587.791	 3107.610	 161.458	1799.122	429.499	     0.000	    26.103	  3545.691	     0.000	     0.000	     0.000	     0.000	   179.972	   -17.388	    17.361	 1.600
373.00	 1374.735	-5586.981	 3107.236	 160.915	1801.925	431.174	     0.000	    26.103	  3545.691	     0.000	     0.000	     0.000	     0.000	   179.972	   -17.648	    17.620	 1.600
374.00	 1376.297	-5586.162	 3106.856	 160.364	1804.768	432.848	     0.000	    26.103	  3545.691	     0.000	     0.000	     0.000	     0.000	   179.972	   -17.907	    17.879	 1.600
375.00	 1377.856	-5585.336	 3106.473	 159.805	1807.652	434.523	     0.000	    26.103	  3545.691	     0.000	     0.000	     0.000	     0.000	   179.972	   -18.165	    18.137	 1.600
376.00	 1379.414	-5584.502	 3106.084	 159.236	1810.575	436.199	     0.000	    26.103	  3545.691	     0.000	     0.000	     0.000	     0.000	   179.972	   -18.422	    18.395	 1.600
377.00	 1380.970	-5583.661	 3105.692	 158.660	1813.539	437.875	     0.000	    26.103	  3545.691	     0.000	     0.000	     0.000	     0.000	   179.973	   -18.679	    18.651	 1.600
378.00	 1382.524	-5582.812	 3105.295	 158.074	1816.543	439.551	     0.000	    26.103	  3545.691	     0.000	     0.000	     0.000	     0.000	   179.973	   -18.934	    18.907	 1.600
379.00	 1384.076	-5581.955	 3104.893	 157.480	1819.586	441.227	     0.000	    26.103	  3545.691	     0.000	     0.000	     0.000	     0.000	   179.973	   -19.189	    19.162	 1.600
380.00	 1385.626	-5581.090	 3104.487	 156.877	1822.669	442.904	     0.000	    26.103	  3545.691	     0.000	     0.000	     0.000	     0.000	   179.973	   -19.443	    19.416	 1.600
381.00	 1387.175	-5580.218	 3104.077	 156.266	1825.791	444.581	     0.000	    26.103	  3545.691	     0.000	     0.000	     0.000	     0.000	   179.973	   -19.696	    19.669	 1.600
382.00	 1388.721	-5579.338	 3103.662	 155.646	1828.953	446.259	     0.000	    26.103	  3545.691	     0.000	     0.000	     0.000	     0.000	   179.973	   -19.948	    19.921	 1.600
383.00	 1390.266	-5578.450	 3103.243	 155.017	1832.154	447.937	     0.000	    26.103	  3545.691	     0.000	     0.000	     0.000	     0.000	   179.973	   -20.200	    20.173	 1.600
384.00	 1391.809	-5577.554	 3102.820	 154.380	1835.393	449.616	     0.000	    26.103	  3545.691	     0.000	     0.000	     0.000	     0.000	   179.973	   -20.450	    20.423	 1.600
385.00	 1393.350	-5576.651	 3102.391	 153.734	1838.671	451.295	     0.000	    26.103	  3545.691	     0.000	     0.000	     0.000	     0.000	   179.973	   -20.700	    20.673	 1.600
386.00	 1394.889	-5575.740	 3101.959	 153.079	1841.988	452.974	     0.000	    26.103	  3545.691	     0.000	     0.000	     0.000	     0.000	   179.973	   -20.948	    20.922	 1.600
387.00	 1396.427	-5574.821	 3101.522	 152.416	1845.343	454.654	     0.000	    26.103	  3545.691	     0.000	     0.000	     0.000	     0.000	   179.973	   -21.196	    21.170	 1.600
388.00	 1397.962	-5573.895	 3101.081	 151.744	1848.736	456.334	     0.000	    26.103	  3545.691	     0.000	     0.000	     0.000	     0.000	   179.973	   -21.443	    21.417	 1.600
389.00	 1399.496	-5572.961	 3100.635	 151.064	1852.168	458.014	     0.000	    26.103	  3545.691	     0.000	     0.000	     0.000	     0.000	   179.974	   -21.689	    21.663	 1.600
390.00	 1401.028	-5572.019	 3100.185	 150.375	1855.637	459.695	     0.000	    26.103	  3545.691	     0.000	     0.000	     0.000	     0.000	   179.974	   -21.934	    21.908	 1.600
391.00	 1402.558	-5571.070	 3099.730	 149.677	1859.143	461.377	     0.000	    26.103	  3545.691	     0.000	     0.000	     0.000	     0.000	   179.974	   -22.179	    22.152	 1.600
392.00	 1404.086	-5570.112	 3099.271	 148.970	1862.688	463.059	     0.000	    26.103	  3545.691	     0.000	     0.000	     0.000	     0.000	   179.974	   -22.422	    22.396	 1.600
393.00	 1405.612	-5569.147	 3098.807	 148.255	1866.269	464.741	     0.000	    26.103	  3545.691	     0.000	     0.000	     0.000	     0.000	   179.974	   -22.664	    22.638	 1.600
394.00	 1407.137	-5568.174	 3098.339	 147.531	1869.888	466.424	     0.000	    26.103	  3545.691	     0.000	     0.000	     0.000	     0.000	   179.974	   -22.906	    22.880	 1.600
395.00	 1408.659	-5567.194	 3097.867	 146.799	1873.544	468.107	     0.000	    26.103	  3545.691	     0.000	     0.000	     0.000	     0.000	   179.974	   -23.146	    23.120	 1.600
396.00	 1410.180	-5566.206	 3097.390	 146.058	1877.236	469.791	     0.000	    26.103	  3545.691	     0.000	     0.000	     0.000	     0.000	   179.974	   -23.386	    23.360	 1.600
397.00	 1411.698	-5565.210	 3096.909	 145.308	1880.965	471.475	     0.000	    26.103	  3545.691	     0.000	     0.000	     0.000	     0.000	   179.974	   -23.625	    23.599	 1.600
398.00	 1413.215	-5564.206	 3096.423	 144.550	1884.730	473.160	     0.000	    26.103	  3545.691	     0.000	     0.000	     0.000	     0.000	   179.974	   -23.862	    23.837	 1.600
399.00	 1414.730	-5563.194	 3095.932	 143.783	1888.532	474.845	     0.000	    26.103	  3545.691	     0.000	     0.000	     0.000	     0.000	   179.974	   -24.099	    24.074	 1.600
400.00	 1416.243	-5562.175	 3095.438	 143.007	1892.370	476.531	     0.000	    26.103	  3545.691	     0.000	     0.000	     0.000	     0.000	   179.975	   -24.335	    24.310	 1.600
401.00	 1417.755	-5561.148	 3094.939	 142.222	1896.243	478.217	     0.000	    26.103	  3545.691	     0.000	     0.000	     0.000	     0.000	   179.975	   -24.570	    24.545	 1.600
402.00	 1419.264	-5560.113	 3094.435	 141.429	1900.153	479.904	     0.000	    26.103	  3545.691	     0.000	     0.000	     0.000	     0.000	   179.975	   -24.804	    24.779	 1.600
403.00	 1420.772	-5559.071	 3093.927	 140.628	1904.098	481.591	     0.000	    26.103	  3545.691	     0.000	     0.000	     0.000	     0.000	   179.975	   -25.037	    25.012	 1.600
404.00	 1422.277	-5558.021	 3093.415	 139.817	1908.078	483.279	     0.000	    26.103	  3545.691	     0.000	     0.000	     0.000	     0.000	   179.975	   -25.269	    25.244	 1.600
405.00	 1423.781	-5556.963	 3092.898	 138.998	1912.093	484.967	     0.000	    26.103	  3545.691	     0.000	     0.000	     0.000	     0.000	   179.975	   -25.500	    25.475	 1.600
406.00	 1425.283	-5555.897	 3092.376	 138.170	1916.144	486.656	     0.000	    26.103	  3545.691	     0.000	     0.000	     0.000	     0.000	   179.975	   -25.730	    25.705	 1.600
407.00	 1426.783	-5554.824	 3091.850	 137.334	1920.229	488.345	     0.000	    26.103	  3545.691	     0.000	     0.000	     0.000	     0.000	   179.975	   -25.959	    25.935	 1.600
408.00	 1428.281	-5553.742	 3091.320	 136.489	1924.349	490.035	     0.000	    26.103	  3545.691	     0.000	     0.000	     0.000	     0.000	   179.975	   -26.188	    26.163	 1.600
409.00	 1429.777	-5552.653	 3090.785	 135.635	1928.503	491.726	     0.000	    26.103	  3545.691	     0.000	     0.000	     0.000	     0.000	   179.975	   -26.415	    26.390	 1.600
410.00	 1431.271	-5551.557	 3090.246	 134.772	1932.692	493.417	     0.000	    26.103	  3545.691	     0.000	     0.000	     0.000	     0.000	   179.976	   -26.641	    26.617	 1.600
411.00	 1432.763	-5550.452	 3089.702	 133.901	1936.915	495.108	     0.000	    26.103	  3545.691	     0.000	     0.000	     0.000	     0.000	   179.976	   -26.867	    26.842	 1.600
412.00	 1434.254	-5549.340	 3089.154	 133.021	1941.171	496.801	     0.000	    26.103	  3545.691	     0.000	     0.000	     0.000	     0.000	   179.976	   -27.091	    27.067	 1.600
413.00	 1435.742	-5548.220	 3088.602	 132.132	1945.462	498.493	     0.000	    26.103	  3545.691	     0.000	     0.000	     0.000	     0.000	   179.976	   -27.314	    27.290	 1.600
414.00	 1437.229	-5547.092	 3088.045	 131.235	1949.786	500.186	     0.000	    26.103	  3545.691	     0.000	     0.000	     0.000	     0.000	   179.976	   -27.537	    27.513	 1.600
415.00	 1438.714	-5545.957	 3087.483	 130.329	1954.143	501.880	     0.000	    26.103	  3545.691	     0.000	     0.000	     0.000	     0.000	   179.976	   -27.758	    27.734	 1.600
416.00	 1440.197	-5544.813	 3086.917	 129.414	1958.533	503.575	     0.000	    26.103	  3545.691	     0.000	     0.000	     0.000	     0.000	   179.976	   -27.978	    27.955	 1.600
417.00	 1441.678	-5543.662	 3086.347	 128.491	1962.957	505.270	     0.000	    26.103	  3545.691	     0.000	     0.000	     0.000	     0.000	   179.976	   -28.198	    28.174	 1.600
418.00	 1443.157	-5542.503	 3085.772	 127.559	1967.414	506.965	     0.000	    26.103	  3545.691	     0.000	     0.000	     0.000	     0.000	   179.976	   -28.416	    28.393	 1.600
419.00	 1444.634	-5541.337	 3085.192	 126.618	1971.903	508.662	     0.000	    26.103	  3545.691	     0.000	     0.000	     0.000	     0.000	   179.976	   -28.634	    28.610	 1.600
420.00	 1446.109	-5540.162	 3084.608	 125.668	1976.425	510.359	     0.000	    26.103	  3545.691	     0.000	     0.000	     0.000	     0.000	   179.977	   -28.850	    28.827	 1.600
421.00	 1447.582	-5538.980	 3084.020	 124.710	1980.979	512.056	     0.000	    26.103	  3545.691	     0.000	     0.000	     0.000	     0.000	   179.977	   -29.066	    29.043	 1.600
422.00	 1449.053	-5537.790	 3083.427	 123.743	1985.565	513.754	     0.000	    26.103	  3545.691	     0.000	     0.000	     0.000	     0.000	   179.977	   -29.281	    29.257	 1.600
423.00	 1450.523	-5536.592	 3082.830	 122.767	1990.183	515.453	     0.000	    26.103	  3545.691	     0.000	     0.000	     0.000	     0.000	   179.977	   -29.494	    29.471	 1.600
424.00	 1451.990	-5535.386	 3082.228	 121.783	1994.833	517.152	     0.000	    26.103	  3545.691	     0.000	     0.000	     0.000	     0.000	   179.977	   -29.707	    29.684	 1.600
425.00	 1453.456	-5534.173	 3081.622	 120.790	1999.515	518.852	     0.000	    26.103	  3545.691	     0.000	     0.000	     0.000	     0.000	   179.977	   -29.918	    29.895	 1.600
426.00	 1454.920	-5532.952	 3081.012	 119.788	2004.228	520.553	     0.000	    26.103	  3545.691	     0.000	     0.000	     0.000	     0.000	   179.977	   -30.129	    30.106	 1.600
427.00	 1456.381	-5531.723	 3080.396	 118.777	2008.972	522.254	     0.000	    26.103	  3545.691	     0.000	     0.000	     0.000	     0.000	   179.977	   -30.339	    30.316	 1.600
428.00	 1457.841	-5530.486	 3079.777	 117.758	2013.748	523.956	     0.000	    26.103	  3545.691	     0.000	     0.000	     0.000	     0.000	   179.977	   -30.547	    30.525	 1.600
429.00	 1459.299	-5529.242	 3079.153	 116.730	2018.555	525.659	     0.000	    26.103	  3545.691	     0.000	     0.000	     0.000	     0.000	   179.977	   -30.755	    30.733	 1.600
430.00	 1460.755	-5527.989	 3078.524	 115.693	2023.392	527.362	     0.000	    26.103	  3545.691	     0.000	     0.000	     0.000	     0.000	   179.977	   -30.962	    30.939	 1.600
431.00	 1462.209	-5526.729	 3077.891	 114.648	2028.260	529.066	     0.000	    26.103	  3545.691	     0.000	     0.000	     0.000	     0.000	   179.978	   -31.168	    31.145	 1.600
432.00	 1463.661	-5525.461	 3077.253	 113.593	2033.159	530.771	     0.000	    26.103	  3545.691	     0.000	     0.000	     0.000	     0.000	   179.978	   -31.372	    31.350	 1.600
433.00	 1465.111	-5524.185	 3076.611	 112.530	2038.088	532.476	     0.000	    26.103	  3545.691	     0.000	     0.000	     0.000	     0.000	   179.978	   -31.576	    31.554	 1.600
434.00	 1466.559	-5522.902	 3075.965	 111.458	2043.046	534.182	     0.000	    26.103	  3545.691	     0.000	     0.000	     0.000	     0.000	   179.978	   -31.779	    31.757	 1.600
435.00	 1468.006	-5521.610	 3075.314	 110.378	2048.035	535.889	     0.000	    26.103	  3545.691	     0.000	     0.000	     0.000	     0.000	   179.978	   -31.981	    31.959	 1.600
436.00	 1469.450	-5520.311	 3074.658	 109.289	2053.054	537.596	     0.000	    26.103	  3545.691	     0.000	     0.000	     0.000	     0.000	   179.978	   -32.182	    32.160	 1.600
437.00	 1470.892	-5519.004	 3073.998	 108.191	2058.103	539.304	     0.000	    26.103	  3545.691	     0.000	     0.000	     0.000	     0.000	   179.978	   -32.382	    32.360	 1.600
438.00	 1472.333	-5517.689	 3073.334	 107.084	2063.180	541.013	     0.000	    26.103	  3545.691	     0.000	     0.000	     0.000	     0.000	   179.978	   -32.581	    32.559	 1.600
439.00	 1473.771	-5516.366	 3072.665	 105.968	2068.288	542.723	     0.000	    26.103	  3545.691	     0.000	     0.000	     0.000	     0.000	   179.978	   -32.779	    32.757	 1.600
440.00	 1475.208	-5515.036	 3071.992	 104.844	2073.424	544.433	     0.000	    26.103	  3545.691	     0.000	     0.000	     0.000	     0.000	   179.978	   -32.976	    32.954	 1.600
441.00	 1476.642	-5513.697	 3071.314	 103.711	2078.589	546.144	     0.000	    26.103	  3545.691	     0.000	     0.000	     0.000	     0.000	   179.979	   -33.172	    33.151	 1.600
442.00	 1478.075	-5512.351	 3070.631	 102.569	2083.783	547.856	     0.000	    26.103	  3545.691	     0.000	     0.000	     0.000	     0.000	   179.979	   -33.367	    33.346	 1.600
443.00	 1479.505	-5510.997	 3069.944	 101.418	2089.006	549.569	     0.000	    26.103	  3545.691	     0.000	     0.000	     0.000	     0.000	   179.979	   -33.561	    33.540	 1.600
444.00	 1480.934	-5509.635	 3069.253	 100.259	2094.257	551.282	     0.000	    26.103	  3545.691	     0.000	     0.000	     0.000	     0.000	   179.979	   -33.754	    33.733	 1.600
445.00	 1482.361	-5508.266	 3068.557	  99.091	2099.537	552.996	     0.000	    26.103	  3545.691	     0.000	     0.000	     0.000	     0.000	   179.979	   -33.947	    33.926	 1.600
446.00	 1483.786	-5506.888	 3067.856	  97.914	2104.845	554.711	     0.000	    26.103	  3545.691	     0.000	     0.000	     0.000	     0.000	   179.979	   -34.138	    34.117	 1.600
447.00	 1485.208	-5505.503	 3067.152	  96.728	2110.181	556.427	     0.000	    26.103	  3545.691	     0.000	     0.000	     0.000	     0.000	   179.979	   -34.328	    34.307	 1.600
448.00	 1486.629	-5504.109	 3066.442	  95.533	2115.545	558.143	     0.000	    26.103	  3545.691	     0.000	     0.000	     0.000	     0.000	   179.979	   -34.518	    34.497	 1.600
449.00	 1488.048	-5502.708	 3065.728	  94.330	2120.936	559.860	     0.000	    26.103	  3545.691	     0.000	     0.000	     0.000	     0.000	   179.979	   -34.706	    34.685	 1.600
450.00	 1489.465	-5501.299	 3065.010	  93.118	2126.356	561.578	     0.000	    26.103	  3545.691	     0.000	     0.000	     0.000	     0.000	   179.979	   -34.894	    34.873	 1.600
451.00	 1490.880	-5499.883	 3064.287	  91.897	2131.802	563.297	     0.000	    26.103	  3545.691	     0.000	     0.000	     0.000	     0.000	   179.979	   -35.080	    35.060	 1.600
452.00	 1492.293	-5498.458	 3063.559	  90.667	2137.276	565.017	     0.000	    26.103	  3545.691	     0.000	     0.000	     0.000	     0.000	   179.980	   -35.266	    35.245	 1.600
453.00	 1493.703	-5497.026	 3062.827	  89.429	2142.777	566.737	     0.000	    26.103	  3545.691	     0.000	     0.000	     0.000	     0.000	   179.980	   -35.451	    35.430	 1.600
454.00	 1495.112	-5495.585	 3062.091	  88.181	2148.305	568.458	     0.000	    26.103	  3545.691	     0.000	     0.000	     0.000	     0.000	   179.980	   -35.634	    35.614	 1.600
455.00	 1496.519	-5494.137	 3061.350	  86.925	2153.860	570.180	     0.000	    26.103	  3545.691	     0.000	     0.000	     0.000	     0.000	   179.980	   -35.817	    35.797	 1.600
456.00	 1497.924	-5492.681	 3060.604	  85.660	2159.441	571.903	     0.018	    26.103	  3545.691	     0.000	     0.000	     0.000	     0.001	   179.980	   -35.999	    35.979	 1.600
457.00	 1499.327	-5491.217	 3059.854	  84.386	2165.043	573.627	     0.022	    26.103	  3545.691	     0.000	     0.000	     0.000	     0.001	   179.980	   -36.180	    36.160	 1.600
458.00	 1500.728	-5489.745	 3059.100	  83.104	2170.669	575.351	     0.026	    26.103	  3545.691	     0.000	     0.000	     0.000	     0.001	   179.980	   -36.360	    36.340	 1.600
459.00	 1502.127	-5488.265	 3058.341	  81.812	2176.321	577.077	     0.032	    26.103	  3545.691	     0.000	     0.000	     0.000	     0.001	   179.980	   -36.539	    36.519	 1.600
460.00	 1503.524	-5486.778	 3057.577	  80.512	2181.997	578.803	     0.038	    26.103	  3545.691	     0.000	     0.000	     0.000	     0.001	   179.980	   -36.717	    36.698	 1.600
461.00	 1504.919	-5485.282	 3056.809	  79.203	2187.696	580.530	     0.046	    26.103	  3545.691	     0.000	     0.000	     0.000	     0.002	   179.980	   -36.895	    36.875	 1.600
462.00	 1506.312	-5483.779	 3056.036	  77.885	2193.418	582.258	     0.056	    26.103	  3545.691	     0.000	     0.000	     0.000	     0.002	   179.980	   -37.071	    37.052	 1.600
463.00	 1507.703	-5482.268	 3055.259	  76.558	2199.163	583.987	     0.068	    26.103	  3545.691	     0.000	     0.000	     0.000	     0.002	   179.981	   -37.247	    37.227	 1.600
464.00	 1509.092	-5480.748	 3054.478	  75.223	2204.929	585.717	     0.082	    26.103	  3545.691	     0.000	     0.000	     0.000	     0.003	   179.981	   -37.421	    37.402	 1.600
465.00	 1510.479	-5479.221	 3053.691	  73.878	2210.715	587.447	     0.100	    26.103	  3545.691	     0.000	     0.000	     0.000	     0.003	   179.981	   -37.595	    37.576	 1.600
466.00	 1511.864	-5477.687	 3052.901	  72.525	2216.520	589.179	     0.121	    26.103	  3545.691	     0.000	     0.000	     0.000	     0.004	   179.981	   -37.768	    37.748	 1.600
467.00	 1513.246	-5476.144	 3052.106	  71.163	2222.343	590.911	     0.147	    26.103	  3545.691	     0.000	     0.000	     0.000	     0.005	   179.981	   -37.939	    37.920	 1.600
468.00	 1514.627	-5474.593	 3051.306	  69.792	2228.181	592.644	     0.180	    26.103	  3545.691	     0.000	     0.000	     0.000	     0.006	   179.981	   -38.110	    38.091	 1.600
469.00	 1516.006	-5473.035	 3050.502	  68.412	2234.033	594.378	     0.220	    26.103	  3545.691	     0.000	     0.000	     0.000	     0.007	   179.981	   -38.281	    38.262	 1.600
470.00	 1517.382	-5471.468	 3049.693	  67.024	2239.894	596.113	     0.269	    26.103	  3545.691	     0.000	     0.000	     0.000	     0.009	   179.981	   -38.450	    38.431	 1.600
471.00	 1518.757	-5469.894	 3048.880	  65.626	2245.763	597.849	     0.329	    26.103	  3545.691	     0.000	     0.000	     0.000	     0.011	   179.981	   -38.618	    38.599	 1.600
472.00	 1520.130	-5468.312	 3048.062	  64.220	2251.635	599.585	     0.403	    26.103	  3545.691	     0.000	     0.000	     0.000	     0.013	   179.981	   -38.786	    38.767	 1.600
473.00	 1521.500	-5466.722	 3047.239	  62.805	2257.504	601.323	     0.494	    26.103	  3545.691	     0.000	     0.000	     0.000	     0.016	   179.981	   -38.952	    38.934	 1.600
474.00	 1522.868	-5465.125	 3046.413	  61.382	2263.364	603.061	     0.607	    26.103	  3545.691	     0.000	     0.000	     0.000	     0.020	   179.982	   -39.118	    39.100	 1.600
475.00	 1524.234	-5463.519	 3045.581	  59.949	2269.208	604.800	     0.747	    26.103	  3545.691	     0.000	     0.000	     0.000	     0.025	   179.982	   -39.283	    39.265	 1.600
476.00	 1525.598	-5461.906	 3044.746	  58.508	2275.025	606.540	     0.920	    26.103	  3545.691	     0.000	     0.000	     0.000	     0.030	   179.982	   -39.447	    39.429	 1.600
477.00	 1526.960	-5460.285	 3043.906	  57.058	2280.804	608.281	     1.135	    26.103	  3545.691	     0.000	     0.000	     0.000	     0.037	   179.982	   -39.610	    39.592	 1.600
478.00	 1528.319	-5458.656	 3043.061	  55.600	2286.528	610.022	     1.401	    26.103	  3545.691	     0.000	     0.000	     0.000	     0.046	   179.982	   -39.773	    39.755	 1.600
479.00	 1529.676	-5457.020	 3042.212	  54.132	2292.180	611.764	     1.731	    26.103	  3545.691	     0.000	     0.000	     0.000	     0.057	   179.982	   -39.934	    39.916	 1.600
480.00	 1531.031	-5455.376	 3041.359	  52.657	2297.736	613.506	     2.142	    26.103	  3545.691	     0.000	     0.000	     0.000	     0.070	   179.982	   -40.095	    40.077	 1.600
481.00	 1532.384	-5453.725	 3040.501	  51.172	2303.166	615.249	     2.653	    26.103	  3545.691	     0.000	     0.000	     0.000	     0.087	   179.982	   -40.255	    40.237	 1.600
482.00	 1533.733	-5452.066	 3039.639	  49.680	2308.434	616.993	     3.289	    26.103	  3545.691	     0.000	     0.000	     0.000	     0.108	   179.982	   -40.414	    40.396	 1.600
483.00	 1535.080	-5450.401	 3038.773	  48.179	2313.494	618.736	     4.082	    26.103	  3545.691	     0.000	     0.000	     0.000	     0.134	   179.982	   -40.573	    40.555	 1.600
484.00	 1536.425	-5448.728	 3037.903	  46.670	2318.289	620.479	     5.071	    26.103	  3545.691	     0.000	     0.000	     0.000	     0.166	   179.982	   -40.730	    40.713	 1.600
485.00	 1537.900	-5446.880	 3036.942	  45.002	2322.748	622.397	     6.305	    26.103	  3545.691	     0.000	     0.000	     1.000	     0.207	   179.965	   -40.903	    40.868	 1.600
486.00	 1539.235	-5445.197	 3036.066	  43.480	2310.331	624.136	     7.996	    25.783	  3564.323	     0.000	     0.000	     1.000	     3.633	   179.991	   -41.055	    41.047	 0.000
487.00	 1540.548	-5443.531	 3035.198	  41.972	2270.554	625.851	     9.561	    25.000	  3610.427	     0.000	     0.000	     1.000	     4.916	   179.991	   -41.214	    41.205	 0.000
488.00	 1541.832	-5441.892	 3034.344	  40.487	2228.350	627.530	    11.358	    24.188	  3658.979	     0.000	     0.000	     1.000	     4.995	   179.991	   -41.377	    41.367	 0.000
489.00	 1543.086	-5440.280	 3033.503	  39.025	2185.386	629.175	    13.430	    23.376	  3708.314	     0.000	     0.000	     1.000	     5.076	   179.991	   -41.542	    41.533	 0.000
490.00	 1544.310	-5438.697	 3032.678	  37.587	2141.637	630.783	    15.802	    22.563	  3758.458	     0.000	     0.000	     1.000	     5.160	   179.991	   -41.712	    41.702	 0.000
491.00	 1545.503	-5437.143	 3031.866	  36.173	2097.076	632.354	    18.499	    21.751	  3809.437	     0.000	     0.000	     1.000	     5.247	   179.990	   -41.885	    41.876	 0.000
492.00	 1546.665	-5435.619	 3031.071	  34.785	2051.677	633.889	    21.543	    20.939	  3861.278	     0.000	     0.000	     1.000	     5.336	   179.990	   -42.063	    42.053	 0.000
493.00	 1547.796	-5434.125	 3030.290	  33.423	2005.411	635.385	    24.951	    20.126	  3914.010	     0.000	     0.000	     1.000	     5.429	   179.990	   -42.244	    42.234	 0.000
494.00	 1548.895	-5432.662	 3029.525	  32.087	1958.249	636.843	    28.732	    19.314	  3967.664	     0.000	     0.000	     1.000	     5.525	   179.990	   -42.431	    42.421	 0.000
495.00	 1549.962	-5431.231	 3028.777	  30.779	1910.160	638.262	    32.889	    18.502	  4022.270	     0.000	     0.000	     1.000	     5.623	   179.990	   -42.622	    42.612	 0.000
496.00	 1550.997	-5429.833	 3028.046	  29.498	1861.110	639.642	    37.414	    17.690	  4077.863	     0.000	     0.000	     1.000	     5.726	   179.989	   -42.819	    42.808	 0.000
497.00	 1551.998	-5428.468	 3027.331	  28.247	1811.066	640.981	    42.283	    16.877	  4134.476	     0.000	     0.000	     1.000	     5.832	   179.989	   -43.021	    43.010	 0.000
498.00	 1552.967	-5427.138	 3026.634	  27.026	1759.992	642.280	    47.458	    16.065	  4192.145	     0.000	     0.000	     1.000	     5.942	   179.989	   -43.229	    43.218	 0.000
499.00	 1553.902	-5425.843	 3025.956	  25.834	1708.007	643.536	    52.891	    15.255	  4250.754	     0.000	     0.000	     0.990	     5.995	   179.988	   -43.443	    43.432	 0.000
500.00	 1554.803	-5424.584	 3025.296	  24.675	1655.926	644.751	    58.571	    14.458	  4309.487	     0.000	     0.000	     0.973	     6.001	   179.988	   -43.665	    43.653	 0.000
501.00	 1555.671	-5423.361	 3024.654	  23.546	1603.875	645.924	    64.450	    13.677	  4368.220	     0.000	     0.000	     0.955	     6.005	   179.988	   -43.893	    43.881	 0.000
502.00	 1556.505	-5422.174	 3024.031	  22.449	1551.858	647.056	    70.461	    12.909	  4426.950	     0.000	     0.000	     0.935	     5.991	   179.987	   -44.129	    44.117	 0.000
503.00	 1557.306	-5421.023	 3023.426	  21.383	1499.822	648.146	    76.518	    12.159	  4485.477	     0.000	     0.000	     0.905	     6.000	   179.987	   -44.373	    44.360	 0.044
504.00	 1558.075	-5419.908	 3022.841	  20.349	1447.788	649.194	    82.527	    11.442	  4542.486	     0.000	     0.000	     0.863	     6.004	   179.987	   -44.626	    44.613	 0.116
505.00	 1558.810	-5418.830	 3022.274	  19.347	1395.152	650.201	    95.176	    10.761	  4597.579	     0.000	     0.000	     0.815	     6.103	   179.986	   -44.888	    44.874	 0.215
506.00	 1559.511	-5417.791	 3021.727	  18.380	1333.019	651.164	   101.389	    10.120	  4650.293	     0.000	     0.000	     0.765	     7.637	   179.985	   -45.160	    45.146	 0.807
507.00	 1560.171	-5416.801	 3021.206	  17.456	1260.535	652.075	   105.040	     9.520	  4700.469	     0.000	     0.000	     0.715	     8.453	   179.985	   -45.447	    45.432	 1.108
508.00	 1560.788	-5415.866	 3020.713	  16.582	1182.266	652.929	   106.207	     8.960	  4747.966	     0.000	     0.000	     0.665	     8.864	   179.984	   -45.751	    45.735	 1.292
509.00	 1561.359	-5414.989	 3020.251	  15.760	1101.652	653.723	   105.106	     8.442	  4792.648	     0.000	     0.000	     0.615	     8.969	   179.983	   -46.076	    46.059	 1.408
510.00	 1561.909	-5414.132	 3019.799	  14.955	1021.311	654.491	   102.079	     7.963	  4834.382	     0.000	     0.000	     0.000	     8.845	   179.963	   -46.444	    46.406	 1.605
511.00	 1562.396	-5413.361	 3019.392	  14.230	 973.637	655.175	   104.214	     7.963	  4834.382	     0.000	     0.000	     0.000	     5.239	   179.961	   -46.795	    46.757	 1.605
512.00	 1562.855	-5412.623	 3019.002	  13.532	 927.940	655.824	   108.725	     7.963	  4834.382	     0.000	     0.000	     0.000	     5.464	   179.960	   -47.181	    47.141	 1.605
513.00	 1563.287	-5411.917	 3018.629	  12.865	 881.887	656.437	   107.537	     7.963	  4834.382	     0.000	     0.000	     0.000	     5.400	   179.958	   -47.585	    47.543	 1.603
514.00	 1563.692	-5411.245	 3018.273	  12.226	 836.733	657.014	   105.662	     7.963	  4834.382	     0.000	     0.000	     0.000	     5.294	   179.956	   -48.007	    47.963	 1.600
515.00	 1564.070	-5410.605	 3017.935	  11.617	 792.886	657.557	   103.140	     7.963	  4834.382	     0.000	     0.000	     0.000	     5.148	   179.954	   -48.450	    48.404	 1.593
516.00	 1564.422	-5409.997	 3017.612	  11.036	 750.739	658.066	   100.075	     7.963	  4834.382	     0.000	     0.000	     0.000	     4.963	   179.952	   -48.914	    48.866	 1.582
517.00	 1564.751	-5409.418	 3017.305	  10.481	 710.670	658.544	    96.616	     7.963	  4834.382	     0.000	     0.000	     0.000	     4.740	   179.950	   -49.401	    49.351	 1.565
518.00	 1565.056	-5408.868	 3017.013	   9.953	 672.977	658.992	    92.928	     7.963	  4834.382	     0.000	     0.000	     0.000	     4.493	   179.947	   -49.911	    49.858	 1.542
519.00	 1565.340	-5408.345	 3016.735	   9.448	 637.833	659.412	    89.156	     7.963	  4834.382	     0.000	     0.000	     0.000	     4.234	   179.945	   -50.444	    50.389	 1.514
520.00	 1565.604	-5407.847	 3016.470	   8.965	 605.314	659.806	    85.421	     7.963	  4834.382	     0.000	     0.000	     0.000	     3.972	   179.943	   -51.001	    50.944	 1.482
521.00	 1565.849	-5407.371	 3016.217	   8.504	 575.400	660.175	    81.813	     7.963	  4834.382	     0.000	     0.000	     0.000	     3.715	   179.940	   -51.581	    51.521	 1.447
522.00	 1566.077	-5406.917	 3015.975	   8.061	 548.005	660.522	    78.394	     7.963	  4834.382	     0.000	     0.000	     0.000	     3.470	   179.938	   -52.183	    52.121	 1.410
523.00	 1566.289	-5406.482	 3015.743	   7.635	 522.992	660.848	    75.201	     7.963	  4834.382	     0.000	     0.000	     0.000	     3.241	   179.936	   -52.807	    52.743	 1.373
524.00	 1566.486	-5406.065	 3015.520	   7.225	 500.197	661.155	    72.251	     7.963	  4834.382	     0.000	     0.000	     0.000	     3.030	   179.934	   -53.451	    53.385	 1.335
525.00	 1566.670	-5405.664	 3015.306	   6.829	 479.442	661.444	    69.549	     7.963	  4834.382	     0.000	     0.000	     0.000	     2.837	   179.932	   -54.115	    54.047	 1.299
526.00	 1566.841	-5405.277	 3015.099	   6.445	 460.545	661.717	    67.089	     7.963	  4834.382	     0.000	     0.000	     0.000	     2.662	   179.931	   -54.795	    54.726	 1.264
527.00	 1567.000	-5404.903	 3014.899	   6.074	 443.332	661.975	    64.862	     7.963	  4834.382	     0.000	     0.000	     0.000	     2.505	   179.929	   -55.491	    55.421	 1.230
528.00	 1567.148	-5404.542	 3014.705	   5.713	 427.639	662.220	    62.851	     7.963	  4834.382	     0.000	     0.000	     0.000	     2.364	   179.928	   -56.202	    56.130	 1.198
529.00	 1567.287	-5404.192	 3014.517	   5.361	 413.313	662.451	    61.042	     7.963	  4834.382	     0.000	     0.000	     0.000	     2.238	   179.927	   -56.924	    56.851	 1.168
530.00	 1567.428	-5403.818	 3014.316	   4.984	 400.215	662.692	    59.419	     7.963	  4834.382	     0.000	     0.000	     1.000	     2.126	   179.851	   -57.731	    57.582	 1.400
531.00	 1567.547	-5403.488	 3014.139	   4.651	 385.624	662.900	    57.347	     7.857	  4843.420	     0.000	     0.000	     0.880	     2.179	   179.962	   -58.457	    58.419	 0.462
532.00	 1567.657	-5403.171	 3013.968	   4.329	 366.606	663.094	    53.731	     7.621	  4863.480	     0.000	     0.000	     0.880	     2.699	   179.961	   -59.219	    59.180	 0.246
533.00	 1567.756	-5402.869	 3013.805	   4.020	 348.801	663.275	    50.259	     7.383	  4883.822	     0.000	     0.000	     0.880	     2.657	   179.960	   -60.002	    59.962	 0.240
534.00	 1567.846	-5402.580	 3013.649	   3.724	 331.468	663.443	    46.819	     7.144	  4904.258	     0.000	     0.000	     0.880	     2.616	   179.959	   -60.807	    60.766	 0.233
535.00	 1567.927	-5402.304	 3013.500	   3.441	 314.607	663.599	    43.435	     6.906	  4924.792	     0.000	     0.000	     0.880	     2.575	   179.958	   -61.634	    61.592	 0.225
536.00	 1568.000	-5402.042	 3013.358	   3.170	 298.212	663.742	    40.125	     6.668	  4945.423	     0.000	     0.000	     0.880	     2.535	   179.957	   -62.483	    62.440	 0.216
537.00	 1568.065	-5401.792	 3013.223	   2.910	 283.900	663.875	    37.309	     6.430	  4966.154	     0.000	     0.000	     0.880	     2.296	   179.956	   -63.352	    63.308	 0.143
538.00	 1568.122	-5401.554	 3013.094	   2.661	 270.251	663.997	    34.665	     6.192	  4986.987	     0.000	     0.000	     0.880	     2.279	   179.955	   -64.238	    64.193	 0.129
539.00	 1568.173	-5401.326	 3012.970	   2.423	 256.836	664.110	    32.062	     5.954	  5007.923	     0.000	     0.000	     0.880	     2.263	   179.954	   -65.140	    65.095	 0.113
540.00	 1568.217	-5401.109	 3012.852	   2.195	 243.649	664.213	    29.512	     5.716	  5028.964	     0.000	     0.000	     0.880	     2.246	   179.953	   -66.059	    66.012	 0.094
541.00	 1568.255	-5400.904	 3012.740	   1.977	 230.686	664.308	    27.026	     5.477	  5050.112	     0.000	     0.000	     0.880	     2.230	   179.953	   -66.994	    66.947	 0.072
542.00	 1568.287	-5400.708	 3012.634	   1.769	 217.938	664.393	    24.615	     5.239	  5071.371	     0.000	     0.000	     0.880	     2.215	   179.952	   -67.946	    67.898	 0.047
543.00	 1568.314	-5400.524	 3012.533	   1.572	 205.397	664.471	    22.285	     5.001	  5092.742	     0.000	     0.000	     0.880	     2.201	   179.951	   -68.914	    68.865	 0.017
544.00	 1568.336	-5400.350	 3012.438	   1.385	 193.020	664.541	    20.039	     4.763	  5114.228	     0.000	     0.000	     0.880	     2.199	   179.950	   -69.899	    69.849	 0.000
545.00	 1568.354	-5400.186	 3012.349	   1.209	 180.613	664.604	    17.848	     4.525	  5135.833	     0.000	     0.000	     0.880	     2.212	   179.949	   -70.901	    70.850	 0.000
546.00	 1568.367	-5400.034	 3012.265	   1.043	 168.141	664.660	    15.718	     4.287	  5157.560	     0.000	     0.000	     0.880	     2.224	   179.948	   -71.922	    71.870	 0.000
547.00	 1568.376	-5399.892	 3012.187	   0.889	 155.598	664.709	    13.664	     4.048	  5179.412	     0.000	     0.000	     0.880	     2.237	   179.947	   -72.963	    72.910	 0.000
548.00	 1568.382	-5399.760	 3012.115	   0.745	 142.978	664.751	    11.701	     3.810	  5201.395	     0.000	     0.000	     0.880	     2.251	   179.946	   -74.027	    73.973	 0.000
549.00	 1568.385	-5399.640	 3012.049	   0.613	 130.274	664.787	     9.842	     3.572	  5223.512	     0.000	     0.000	     0.880	     2.265	   179.945	   -75.117	    75.062	 0.000
550.00	 1568.385	-5399.532	 3011.990	   0.493	 117.480	664.818	     8.101	     3.334	  5245.768	     0.000	     0.000	     0.880	     2.279	   179.943	   -76.237	    76.180	 0.170
551.00	 1568.383	-5399.435	 3011.936	   0.385	 102.643	664.843	     6.264	     3.096	  5268.169	     0.000	     0.000	     0.880	     2.439	   179.940	   -77.400	    77.341	 0.122
552.00	 1568.379	-5399.351	 3011.890	   0.292	  88.740	664.863	     4.728	     2.858	  5290.720	     0.000	     0.000	     0.880	     2.357	   179.937	   -78.622	    78.559	 0.052
553.00	 1568.374	-5399.279	 3011.850	   0.211	  75.512	664.878	     3.457	     2.619	  5313.429	     0.000	     0.000	     0.880	     2.326	   179.934	   -79.902	    79.836	 0.000
554.00	 1568.368	-5399.219	 3011.817	   0.142	  62.275	664.890	     2.375	     2.381	  5336.300	     0.000	     0.000	     0.880	     2.343	   179.931	   -81.246	    81.177	 0.000
555.00	 1568.362	-5399.170	 3011.790	   0.087	  48.904	664.898	     1.481	     2.143	  5359.341	     0.000	     0.000	     0.880	     2.361	   179.926	   -82.676	    82.601	 0.000
556.00	 1568.357	-5399.133	 3011.769	   0.045	  35.388	664.902	     0.787	     1.905	  5382.560	     0.000	     0.000	     0.880	     2.379	   179.919	   -84.226	    84.145	 0.000
557.00	 1568.352	-5399.108	 3011.756	   0.016	  21.716	664.905	     0.304	     1.667	  5405.963	     0.000	     0.000	     0.880	     2.398	   179.906	   -85.972	    85.878	 0.000
558.00	 1568.349	-5399.095	 3011.748	   0.001	   7.874	664.906	     0.045	     1.429	  5429.558	     0.000	     0.000	     0.880	     2.418	   179.870	   -88.144	    88.015	 0.000
558.05	 1568.349	-5399.095	 3011.748	   0.001	   7.177	664.906	     0.031	     1.417	  5430.743	     0.000	     0.000	     0.000	     2.421	   179.862	   -88.416	    88.278	 0.568
