#Time	x(km)		y(km)		z(km)		alt(km)	    relVel		dwnrng(km)	 Q(kPa)	   Fuel(tons) dV_tot	  dV_grav	  dv_drag		 throttle	accel (g's)	      aoa
 -4.05	-2672.329	-4516.862	 3624.534	   0.000	   0.000	0.000	     0.000	   395.700	     0.000	     0.000	     0.000	     0.000	     1.000	    90.000	    -0.000	    34.630
 -3.05	-2672.329	-4516.862	 3624.534	   0.000	   0.000	0.000	     0.000	   395.700	     0.000	     0.000	     0.000	     0.000	     1.000	    90.000	    -0.000	    34.630
 -2.05	-2672.329	-4516.862	 3624.534	   0.000	   0.000	0.000	     0.000	   395.700	     0.000	     0.000	     0.000	     0.000	     1.000	    90.000	    -0.000	    34.630
 -1.05	-2672.329	-4516.862	 3624.534	   0.000	   0.000	0.000	     0.000	   394.947	     4.011	     0.000	     0.000	     0.712	     1.000	    90.000	    -0.000	    34.630
 -0.05	-2672.329	-4516.862	 3624.534	   0.000	   0.000	0.000	     0.000	   392.933	    14.754	     0.000	     0.000	     1.000	     1.000	    90.000	    -0.000	    34.630
  0.00	-2672.329	-4516.862	 3624.534	   0.000	   0.000	0.000	     0.000	   392.828	    15.320	     0.000	     0.000	     1.000	     1.000	    90.000	    -0.000	    34.630
  1.03	-2672.329	-4516.863	 3624.534	   0.001	   1.600	0.000	     0.001	   390.660	    26.938	     0.000	     0.000	     1.000	     1.159	     0.565	    89.435	    89.997
  2.03	-2672.330	-4516.865	 3624.535	   0.003	   3.210	0.000	     0.006	   388.545	    38.321	     0.000	     0.000	     1.000	     1.164	     0.564	    89.436	    89.993
  3.03	-2672.332	-4516.867	 3624.538	   0.007	   4.866	0.000	     0.014	   386.430	    49.751	     0.000	     0.000	     1.000	     1.169	     0.559	    89.441	    89.990
  4.03	-2672.334	-4516.871	 3624.541	   0.013	   6.571	0.000	     0.026	   384.315	    61.229	     0.000	     0.000	     1.000	     1.174	     0.552	    89.446	    89.986
  5.02	-2672.338	-4516.877	 3624.545	   0.020	   8.325	0.000	     0.042	   382.200	    72.756	     0.000	     0.000	     1.000	     1.179	     0.546	    89.452	    89.983
  6.02	-2672.341	-4516.883	 3624.550	   0.029	  10.128	0.000	     0.062	   380.086	    84.333	     0.000	     0.000	     1.000	     1.184	     0.540	    89.457	    89.979
  7.02	-2672.346	-4516.891	 3624.556	   0.040	  11.981	0.000	     0.087	   377.971	    95.959	     0.000	     0.000	     1.000	     1.189	     0.534	    89.462	    89.976
  8.02	-2672.352	-4516.900	 3624.563	   0.053	  13.888	0.001	     0.117	   375.856	   107.637	     0.000	     0.000	     1.000	     1.194	     0.205	    88.295	    88.499
  9.03	-2672.358	-4516.911	 3624.571	   0.068	  15.850	0.001	     0.152	   373.741	   119.366	     0.000	     0.000	     1.000	     1.200	     1.168	    87.331	    88.499
 10.03	-2672.366	-4516.923	 3624.580	   0.085	  17.868	0.002	     0.193	   371.626	   131.147	     0.000	     0.000	     1.000	     1.205	     1.912	    86.586	    88.498
 11.03	-2672.374	-4516.937	 3624.590	   0.104	  19.942	0.003	     0.240	   369.511	   142.981	     0.000	     0.000	     1.000	     1.211	     2.498	    85.999	    88.498
 12.03	-2672.383	-4516.952	 3624.600	   0.125	  22.070	0.005	     0.294	   367.396	   154.869	     0.000	     0.000	     1.000	     1.216	     2.967	    85.530	    88.497
 13.03	-2672.394	-4516.969	 3624.612	   0.148	  24.254	0.007	     0.354	   365.281	   166.811	     0.000	     0.000	     1.000	     1.222	     3.345	    85.151	    88.496
 14.03	-2672.405	-4516.988	 3624.625	   0.173	  26.494	0.009	     0.422	   363.166	   178.808	     0.000	     0.000	     1.000	     1.227	     3.653	    84.842	    88.496
 15.03	-2672.418	-4517.009	 3624.638	   0.200	  28.791	0.012	     0.497	   361.052	   190.862	     0.000	     0.000	     1.000	     1.233	     3.906	    84.589	    88.495
 16.03	-2672.432	-4517.031	 3624.653	   0.230	  31.144	0.014	     0.581	   358.937	   202.972	     0.000	     0.000	     1.000	     1.239	     4.114	    84.380	    88.494
 17.03	-2672.447	-4517.055	 3624.668	   0.262	  33.556	0.018	     0.672	   356.822	   215.140	     0.000	     0.000	     1.000	     1.245	     4.286	    84.208	    88.494
 18.03	-2672.463	-4517.081	 3624.685	   0.297	  36.025	0.021	     0.773	   354.707	   227.367	     0.000	     0.000	     1.000	     1.251	     4.427	    84.066	    88.493
 19.03	-2672.480	-4517.108	 3624.703	   0.334	  38.554	0.025	     0.882	   352.592	   239.652	     0.000	     0.000	     1.000	     1.257	     4.543	    83.949	    88.493
 20.03	-2672.498	-4517.138	 3624.722	   0.373	  41.143	0.029	     1.001	   350.477	   251.998	     0.000	     0.000	     1.000	     1.263	     4.639	    83.853	    88.492
 21.03	-2672.518	-4517.170	 3624.742	   0.415	  43.793	0.034	     1.129	   348.362	   264.406	     0.000	     0.000	     1.000	     1.269	     4.716	    83.775	    88.491
 22.03	-2672.539	-4517.203	 3624.764	   0.460	  46.505	0.039	     1.268	   346.247	   276.875	     0.000	     0.000	     1.000	     1.276	     4.779	    83.712	    88.491
 23.03	-2672.561	-4517.239	 3624.787	   0.508	  49.279	0.044	     1.418	   344.132	   289.407	     0.000	     0.000	     1.000	     1.282	     4.828	    83.662	    88.490
 24.03	-2672.585	-4517.277	 3624.811	   0.558	  52.116	0.050	     1.579	   342.018	   302.003	     0.000	     0.000	     1.000	     1.289	     4.867	    83.623	    88.489
 25.03	-2672.610	-4517.317	 3624.836	   0.611	  55.018	0.056	     1.750	   339.903	   314.664	     0.000	     0.000	     1.000	     1.295	     4.896	    83.593	    88.489
 26.03	-2672.636	-4517.359	 3624.863	   0.667	  57.985	0.062	     1.934	   337.788	   327.390	     0.000	     0.000	     1.000	     1.302	     4.916	    83.572	    88.488
 27.03	-2672.664	-4517.403	 3624.891	   0.726	  61.019	0.069	     2.130	   335.673	   340.184	     0.000	     0.000	     1.000	     1.309	     4.929	    83.558	    88.487
 28.03	-2672.693	-4517.450	 3624.921	   0.788	  64.120	0.076	     2.338	   333.558	   353.045	     0.000	     0.000	     1.000	     1.316	     4.936	    83.551	    88.487
 29.03	-2672.724	-4517.499	 3624.952	   0.854	  67.289	0.083	     2.559	   331.443	   365.975	     0.000	     0.000	     1.000	     1.323	     4.937	    83.549	    88.486
 30.03	-2672.756	-4517.550	 3624.984	   0.922	  70.527	0.091	     2.792	   329.328	   378.975	     0.000	     0.000	     1.000	     1.330	     4.934	    83.552	    88.485
 31.03	-2672.790	-4517.604	 3625.019	   0.994	  73.836	0.099	     3.039	   327.213	   392.046	     0.000	     0.000	     1.000	     1.337	     4.926	    83.559	    88.484
 32.03	-2672.825	-4517.660	 3625.054	   1.069	  77.216	0.107	     3.300	   325.098	   405.189	     0.000	     0.000	     1.000	     1.344	     4.914	    83.570	    88.484
 33.03	-2672.862	-4517.719	 3625.092	   1.147	  80.668	0.116	     3.574	   322.984	   418.405	     0.000	     0.000	     1.000	     1.352	     4.899	    83.585	    88.483
 34.03	-2672.901	-4517.780	 3625.131	   1.229	  84.193	0.125	     3.863	   320.869	   431.695	     0.000	     0.000	     1.000	     1.359	     4.881	    83.602	    88.482
 35.03	-2672.941	-4517.844	 3625.172	   1.314	  87.794	0.135	     4.165	   318.754	   445.060	     0.000	     0.000	     1.000	     1.367	     4.860	    83.622	    88.482
 36.03	-2672.983	-4517.911	 3625.214	   1.403	  91.469	0.145	     4.482	   316.639	   458.501	     0.000	     0.000	     1.000	     1.375	     4.837	    83.645	    88.481
 37.03	-2673.026	-4517.980	 3625.259	   1.496	  95.222	0.155	     4.813	   314.524	   472.021	     0.000	     0.000	     1.000	     1.383	     4.812	    83.669	    88.480
 38.02	-2673.072	-4518.052	 3625.305	   1.592	  99.052	0.166	     5.159	   312.409	   485.619	     0.000	     0.000	     1.000	     1.391	     4.785	    83.695	    88.479
 39.02	-2673.119	-4518.127	 3625.353	   1.693	 102.962	0.177	     5.519	   310.294	   499.296	     0.000	     0.000	     1.000	     1.399	     4.756	    83.723	    88.479
 40.02	-2673.168	-4518.205	 3625.403	   1.797	 106.951	0.188	     5.893	   308.179	   513.055	     0.000	     0.000	     1.000	     1.407	     4.726	    83.752	    88.478
 41.02	-2673.219	-4518.286	 3625.455	   1.905	 111.022	0.200	     6.282	   306.064	   526.896	     0.000	     0.000	     1.000	     1.415	     4.716	    83.786	    88.500
 42.02	-2673.272	-4518.370	 3625.509	   2.017	 115.175	0.212	     6.686	   303.950	   540.821	     0.000	     0.000	     1.000	     1.424	     4.681	    83.820	    88.499
 43.02	-2673.327	-4518.457	 3625.565	   2.134	 119.412	0.225	     7.103	   301.835	   554.830	     0.000	     0.000	     1.000	     1.432	     4.645	    83.855	    88.499
 44.02	-2673.383	-4518.548	 3625.623	   2.255	 123.733	0.238	     7.534	   299.720	   568.925	     0.000	     0.000	     1.000	     1.441	     4.608	    83.891	    88.498
 45.02	-2673.442	-4518.641	 3625.684	   2.380	 128.141	0.251	     7.979	   297.605	   583.108	     0.000	     0.000	     1.000	     1.450	     4.571	    83.927	    88.497
 46.02	-2673.503	-4518.738	 3625.746	   2.509	 132.636	0.265	     8.437	   295.490	   597.378	     0.000	     0.000	     1.000	     1.459	     4.534	    83.964	    88.497
 47.02	-2673.566	-4518.838	 3625.811	   2.643	 137.219	0.279	     8.908	   293.375	   611.739	     0.000	     0.000	     1.000	     1.468	     4.496	    84.002	    88.496
 48.02	-2673.631	-4518.942	 3625.878	   2.782	 141.893	0.293	     9.392	   291.260	   626.190	     0.000	     0.000	     1.000	     1.477	     4.458	    84.039	    88.496
 49.02	-2673.698	-4519.049	 3625.948	   2.925	 146.657	0.308	     9.887	   289.145	   640.734	     0.000	     0.000	     1.000	     1.486	     4.419	    84.077	    88.495
 50.02	-2673.767	-4519.159	 3626.020	   3.074	 151.514	0.324	    10.393	   287.030	   655.371	     0.000	     0.000	     1.000	     1.496	     4.380	    84.115	    88.495
 51.02	-2673.839	-4519.273	 3626.094	   3.227	 156.465	0.339	    10.909	   284.916	   670.103	     0.000	     0.000	     1.000	     1.506	     4.341	    84.154	    88.494
 52.02	-2673.912	-4519.391	 3626.171	   3.385	 161.510	0.355	    11.436	   282.801	   684.931	     0.000	     0.000	     1.000	     1.515	     4.302	    84.192	    88.494
 53.02	-2673.988	-4519.513	 3626.250	   3.548	 166.652	0.372	    11.970	   280.686	   699.856	     0.000	     0.000	     1.000	     1.525	     4.263	    84.231	    88.493
 54.02	-2674.067	-4519.638	 3626.332	   3.716	 171.891	0.389	    12.513	   278.571	   714.881	     0.000	     0.000	     1.000	     1.535	     4.224	    84.269	    88.493
 55.02	-2674.148	-4519.767	 3626.417	   3.890	 177.229	0.406	    13.062	   276.456	   730.005	     0.000	     0.000	     1.000	     1.545	     4.185	    84.308	    88.492
 56.02	-2674.232	-4519.900	 3626.504	   4.068	 182.707	0.424	    13.622	   274.341	   745.231	     0.000	     0.000	     1.000	     1.555	     0.111	    84.051	    84.161
 57.02	-2674.318	-4520.038	 3626.593	   4.253	 188.295	0.444	    14.189	   272.226	   760.559	     0.000	     0.000	     1.000	     1.566	     0.049	    83.730	    83.779
 58.02	-2674.408	-4520.180	 3626.684	   4.443	 193.992	0.466	    14.759	   270.111	   775.992	     0.000	     0.000	     1.000	     1.576	     0.115	    83.402	    83.518
 59.02	-2674.501	-4520.327	 3626.776	   4.638	 199.799	0.489	    15.332	   267.996	   791.529	     0.000	     0.000	     1.000	     1.587	     0.101	    83.067	    83.168
 60.02	-2674.597	-4520.478	 3626.870	   4.839	 205.719	0.514	    15.907	   265.882	   807.174	     0.000	     0.000	     1.000	     1.598	     0.086	    82.726	    82.812
 61.02	-2674.697	-4520.635	 3626.966	   5.046	 211.754	0.541	    16.481	   263.767	   822.926	     0.000	     0.000	     1.000	     1.609	     0.070	    82.379	    82.449
 62.02	-2674.800	-4520.796	 3627.064	   5.258	 217.905	0.570	    17.054	   261.652	   838.788	     0.000	     0.000	     1.000	     1.620	     0.053	    82.026	    82.079
 63.02	-2674.906	-4520.962	 3627.163	   5.477	 224.172	0.601	    17.623	   259.537	   854.761	     0.000	     0.000	     1.000	     1.630	     0.036	    81.667	    81.703
 64.02	-2675.017	-4521.133	 3627.263	   5.702	 230.553	0.635	    18.186	   257.422	   870.845	     0.000	     0.000	     1.000	     1.641	     0.018	    81.303	    81.322
 65.02	-2675.131	-4521.309	 3627.366	   5.933	 237.049	0.671	    18.741	   255.307	   887.043	     0.000	     0.000	     1.000	     1.652	     0.129	    80.934	    81.064
 66.02	-2675.249	-4521.491	 3627.469	   6.170	 243.659	0.710	    19.285	   253.192	   903.355	     0.000	     0.000	     1.000	     1.662	     0.113	    80.561	    80.673
 67.02	-2675.370	-4521.678	 3627.575	   6.413	 250.382	0.751	    19.817	   251.077	   919.783	     0.000	     0.000	     1.000	     1.673	     0.095	    80.183	    80.278
 68.02	-2675.496	-4521.871	 3627.681	   6.663	 257.218	0.795	    20.334	   248.963	   936.328	     0.000	     0.000	     1.000	     1.683	     0.096	    79.800	    79.896
 69.02	-2675.626	-4522.069	 3627.789	   6.919	 264.168	0.842	    20.833	   246.848	   952.991	     0.000	     0.000	     1.000	     1.693	     0.019	    79.414	    79.433
 70.02	-2675.761	-4522.273	 3627.898	   7.182	 271.230	0.892	    21.312	   244.733	   969.774	     0.000	     0.000	     1.000	     1.703	     0.059	    79.023	    79.082
 71.02	-2675.899	-4522.483	 3628.009	   7.451	 278.405	0.945	    21.769	   242.618	   986.678	     0.000	     0.000	     1.000	     1.713	     0.099	    78.629	    78.728
 72.02	-2676.042	-4522.699	 3628.120	   7.727	 285.694	1.002	    22.202	   240.503	  1003.704	     0.000	     0.000	     1.000	     1.723	     0.020	    78.232	    78.252
 73.02	-2676.190	-4522.920	 3628.233	   8.010	 293.095	1.062	    22.607	   238.388	  1020.854	     0.000	     0.000	     1.000	     1.733	     0.060	    77.832	    77.892
 74.02	-2676.342	-4523.148	 3628.347	   8.300	 300.612	1.125	    22.984	   236.273	  1038.128	     0.000	     0.000	     1.000	     1.744	     0.101	    77.429	    77.530
 75.02	-2676.499	-4523.382	 3628.462	   8.597	 308.243	1.192	    23.329	   234.158	  1055.528	     0.000	     0.000	     1.000	     1.754	     0.020	    77.023	    77.044
 76.02	-2676.661	-4523.622	 3628.577	   8.900	 315.991	1.264	    23.641	   232.043	  1073.055	     0.000	     0.000	     1.000	     1.764	     0.061	    76.616	    76.677
 77.02	-2676.828	-4523.869	 3628.694	   9.211	 323.857	1.339	    23.918	   229.929	  1090.711	     0.000	     0.000	     1.000	     1.774	     0.103	    76.206	    76.308
 78.02	-2676.999	-4524.122	 3628.811	   9.529	 331.842	1.418	    24.157	   227.814	  1108.495	     0.000	     0.000	     1.000	     1.785	     0.020	    75.794	    75.815
 79.02	-2677.176	-4524.382	 3628.929	   9.854	 339.951	1.501	    24.358	   225.699	  1126.411	     0.000	     0.000	     1.000	     1.796	     0.062	    75.381	    75.443
 80.02	-2677.358	-4524.649	 3629.047	  10.186	 348.184	1.589	    24.519	   223.584	  1144.458	     0.000	     0.000	     1.000	     1.807	     0.104	    74.966	    75.070
 81.02	-2677.546	-4524.922	 3629.166	  10.526	 356.546	1.682	    24.638	   221.469	  1162.638	     0.000	     0.000	     1.000	     1.818	     0.021	    74.551	    74.571
 82.02	-2677.739	-4525.202	 3629.286	  10.873	 365.039	1.779	    24.714	   219.354	  1180.953	     0.000	     0.000	     1.000	     1.829	     0.063	    74.133	    74.196
 83.02	-2677.937	-4525.489	 3629.405	  11.228	 373.669	1.881	    24.580	   217.239	  1199.402	     0.000	     0.000	     1.000	     1.842	     0.105	    73.716	    73.820
 84.02	-2678.142	-4525.784	 3629.525	  11.590	 382.443	1.988	    24.326	   215.124	  1217.989	     0.000	     0.000	     1.000	     1.854	     0.021	    73.297	    73.318
 85.02	-2678.352	-4526.085	 3629.646	  11.960	 391.364	2.100	    24.039	   213.009	  1236.712	     0.000	     0.000	     1.000	     1.867	     0.063	    72.878	    72.941
 86.02	-2678.568	-4526.394	 3629.766	  12.338	 400.439	2.218	    23.720	   210.895	  1255.573	     0.000	     0.000	     1.000	     1.881	     0.105	    72.459	    72.564
 87.02	-2678.790	-4526.711	 3629.886	  12.723	 409.670	2.341	    23.370	   208.780	  1274.574	     0.000	     0.000	     1.000	     1.895	     0.021	    72.041	    72.061
 88.02	-2679.018	-4527.035	 3630.007	  13.117	 419.063	2.470	    22.990	   206.665	  1293.715	     0.000	     0.000	     1.000	     1.909	     0.063	    71.622	    71.684
 89.02	-2679.252	-4527.366	 3630.127	  13.518	 428.621	2.605	    22.584	   204.550	  1312.997	     0.000	     0.000	     1.000	     1.924	     0.105	    71.203	    71.308
 90.02	-2679.493	-4527.706	 3630.247	  13.928	 438.350	2.746	    22.151	   202.435	  1332.421	     0.000	     0.000	     1.000	     1.939	     0.021	    70.785	    70.806
 91.02	-2679.740	-4528.053	 3630.366	  14.346	 448.253	2.893	    21.694	   200.320	  1351.988	     0.000	     0.000	     1.000	     1.954	     0.063	    70.368	    70.430
 92.02	-2679.995	-4528.409	 3630.485	  14.772	 458.334	3.047	    21.215	   198.205	  1371.700	     0.000	     0.000	     1.000	     1.970	     0.104	    69.951	    70.056
 93.02	-2680.255	-4528.773	 3630.604	  15.206	 468.598	3.207	    20.715	   196.090	  1391.558	     0.000	     0.000	     1.000	     1.986	     0.021	    69.536	    69.557
 94.02	-2680.523	-4529.145	 3630.722	  15.649	 479.049	3.374	    20.196	   193.975	  1411.562	     0.000	     0.000	     1.000	     2.003	     0.062	    69.122	    69.184
 95.02	-2680.798	-4529.526	 3630.840	  16.101	 489.690	3.547	    19.660	   191.861	  1431.714	     0.000	     0.000	     1.000	     2.020	     0.103	    68.709	    68.812
 96.02	-2681.080	-4529.915	 3630.956	  16.561	 500.525	3.728	    19.109	   189.746	  1452.016	     0.000	     0.000	     1.000	     2.037	     0.020	    68.298	    68.319
 97.02	-2681.370	-4530.313	 3631.072	  17.031	 511.556	3.917	    18.545	   187.631	  1472.467	     0.000	     0.000	     1.000	     2.054	     0.062	    67.888	    67.950
 98.02	-2681.667	-4530.720	 3631.187	  17.509	 522.786	4.112	    17.969	   185.516	  1493.071	     0.000	     0.000	     1.000	     2.072	     0.102	    67.481	    67.583
 99.02	-2681.972	-4531.137	 3631.301	  17.996	 534.219	4.316	    17.383	   183.401	  1513.828	     0.000	     0.000	     1.000	     2.090	     0.020	    67.075	    67.095
100.02	-2682.284	-4531.562	 3631.413	  18.492	 545.856	4.527	    16.789	   181.286	  1534.740	     0.000	     0.000	     1.000	     2.108	     0.061	    66.672	    66.732
101.02	-2682.605	-4531.997	 3631.524	  18.998	 557.700	4.747	    16.190	   179.171	  1555.808	     0.000	     0.000	     1.000	     2.126	     0.100	    66.270	    66.371
102.02	-2682.934	-4532.441	 3631.634	  19.513	 569.753	4.975	    15.586	   177.056	  1577.034	     0.000	     0.000	     1.000	     2.145	     0.020	    65.871	    65.891
103.02	-2683.271	-4532.895	 3631.743	  20.037	 582.016	5.211	    14.979	   174.941	  1598.419	     0.000	     0.000	     1.000	     2.163	     0.060	    65.475	    65.534
104.02	-2683.616	-4533.358	 3631.850	  20.571	 594.492	5.457	    14.312	   172.827	  1619.965	     0.000	     0.000	     1.000	     2.182	     0.099	    65.081	    65.179
105.02	-2683.970	-4533.832	 3631.955	  21.115	 607.182	5.711	    13.650	   170.712	  1641.674	     0.000	     0.000	     1.000	     2.201	     0.019	    64.689	    64.709
106.02	-2684.332	-4534.316	 3632.058	  21.668	 620.087	5.974	    12.996	   168.597	  1663.547	     0.000	     0.000	     1.000	     2.220	     0.058	    64.301	    64.359
107.02	-2684.704	-4534.809	 3632.160	  22.232	 633.210	6.247	    12.351	   166.482	  1685.587	     0.000	     0.000	     1.000	     2.239	     0.097	    63.915	    64.011
108.02	-2685.084	-4535.314	 3632.259	  22.805	 646.550	6.529	    11.717	   164.367	  1707.795	     0.000	     0.000	     1.000	     2.258	     0.019	    63.532	    63.551
109.02	-2685.474	-4535.828	 3632.357	  23.389	 660.109	6.821	    11.095	   162.252	  1730.173	     0.000	     0.000	     1.000	     2.277	     0.038	    63.152	    63.190
110.02	-2685.873	-4536.354	 3632.452	  23.982	 673.888	7.123	    10.487	   160.137	  1752.724	     0.000	     0.000	     1.000	     2.297	     0.019	    62.776	    62.794
111.02	-2686.282	-4536.890	 3632.545	  24.586	 687.887	7.435	     9.893	   158.022	  1775.449	     0.000	     0.000	     1.000	     2.316	     0.131	    62.402	    62.533
112.02	-2686.700	-4537.437	 3632.635	  25.201	 702.157	7.758	     0.000	   155.907	  1798.369	     0.000	     0.000	     1.000	     2.352	     0.111	    62.032	    62.143
113.02	-2687.128	-4537.996	 3632.723	  25.826	 716.751	8.091	     0.000	   153.793	  1821.499	     0.000	     0.000	     1.000	     2.370	     0.092	    61.665	    61.757
114.02	-2687.566	-4538.566	 3632.808	  26.462	 731.553	8.435	     0.000	   151.678	  1844.806	     0.000	     0.000	     1.000	     2.388	     0.073	    61.301	    61.374
115.02	-2688.014	-4539.147	 3632.891	  27.109	 746.565	8.791	     0.000	   149.563	  1868.292	     0.000	     0.000	     1.000	     2.406	     0.054	    60.941	    60.995
116.02	-2688.473	-4539.740	 3632.970	  27.766	 761.792	9.157	     0.000	   147.448	  1891.961	     0.000	     0.000	     1.000	     2.425	     0.036	    60.584	    60.620
117.02	-2688.942	-4540.344	 3633.046	  28.435	 777.235	9.535	     0.000	   145.333	  1915.816	     0.000	     0.000	     1.000	     2.444	     0.018	    60.231	    60.248
118.02	-2689.422	-4540.961	 3633.120	  29.115	 792.898	9.925	     0.000	   143.218	  1939.858	     0.000	     0.000	     1.000	     2.464	     0.123	    59.881	    60.004
119.02	-2689.913	-4541.589	 3633.189	  29.806	 808.783	10.327	     0.000	   141.103	  1964.092	     0.000	     0.000	     1.000	     2.483	     0.104	    59.534	    59.639
120.02	-2690.414	-4542.230	 3633.256	  30.508	 824.895	10.742	     0.000	   138.988	  1988.520	     0.000	     0.000	     1.000	     2.503	     0.086	    59.191	    59.277
121.02	-2690.927	-4542.883	 3633.319	  31.222	 841.235	11.168	     0.000	   136.873	  2013.146	     0.000	     0.000	     1.000	     2.524	     0.068	    58.851	    58.920
122.02	-2691.451	-4543.549	 3633.378	  31.947	 857.808	11.608	     0.000	   134.759	  2037.972	     0.000	     0.000	     1.000	     2.544	     0.051	    58.515	    58.566
123.02	-2691.986	-4544.227	 3633.434	  32.684	 874.616	12.060	     0.000	   132.644	  2063.002	     0.000	     0.000	     1.000	     2.565	     0.033	    58.183	    58.216
124.02	-2692.533	-4544.918	 3633.485	  33.433	 891.663	12.525	     0.000	   130.529	  2088.239	     0.000	     0.000	     1.000	     2.587	     0.016	    57.854	    57.870
125.02	-2693.092	-4545.622	 3633.533	  34.193	 908.952	13.003	     0.000	   128.414	  2113.687	     0.000	     0.000	     1.000	     2.608	     0.115	    57.528	    57.643
126.02	-2693.662	-4546.338	 3633.576	  34.966	 926.487	13.495	     0.000	   126.299	  2139.350	     0.000	     0.000	     1.000	     2.630	     0.065	    57.207	    57.271
127.02	-2694.245	-4547.069	 3633.615	  35.750	 944.271	14.001	     0.000	   124.184	  2165.230	     0.000	     0.000	     1.000	     2.653	     0.128	    56.888	    57.017
128.02	-2694.840	-4547.812	 3633.650	  36.547	 962.309	14.521	     0.000	   122.069	  2191.332	     0.000	     0.000	     1.000	     2.676	     0.064	    56.574	    56.637
129.02	-2695.448	-4548.569	 3633.680	  37.356	 980.603	15.055	     0.000	   119.954	  2217.660	     0.000	     0.000	     1.000	     2.699	     0.126	    56.263	    56.388
130.02	-2696.068	-4549.339	 3633.705	  38.177	 999.157	15.604	     0.000	   117.839	  2244.217	     0.000	     0.000	     1.000	     2.722	     0.062	    55.955	    56.017
131.02	-2696.699	-4550.125	 3633.726	  39.011	1017.646	16.167	     0.000	   115.725	  2271.008	     0.000	     0.000	     1.000	     2.747	    14.937	    55.713	    57.827
132.02	-2697.338	-4550.927	 3633.742	  39.858	1034.853	16.742	     0.000	   113.610	  2298.036	     0.000	     0.000	     1.000	     2.771	    23.502	    55.586	    56.000
133.02	-2697.980	-4551.749	 3633.755	  40.717	1051.970	17.329	     0.000	   111.495	  2325.307	     0.000	     0.000	     1.000	     2.796	    23.011	    55.478	    56.006
134.02	-2698.626	-4552.590	 3633.764	  41.590	1069.417	17.926	     0.000	   109.380	  2352.823	     0.000	     0.000	     1.000	     2.821	    22.533	    55.368	    56.012
135.02	-2699.274	-4553.451	 3633.769	  42.477	1087.195	18.535	     0.000	   107.265	  2380.590	     0.000	     0.000	     1.000	     2.847	    22.070	    55.257	    56.018
136.02	-2699.926	-4554.332	 3633.771	  43.376	1105.306	19.154	     0.000	   105.150	  2408.613	     0.000	     0.000	     1.000	     2.873	    21.619	    55.145	    56.024
137.02	-2700.581	-4555.233	 3633.769	  44.290	1123.752	19.786	     0.000	   103.035	  2436.896	     0.000	     0.000	     1.000	     2.900	    21.182	    55.033	    56.030
138.02	-2701.239	-4556.155	 3633.764	  45.217	1142.536	20.429	     0.000	   100.920	  2465.444	     0.000	     0.000	     1.000	     2.928	    20.758	    54.920	    56.036
139.02	-2701.901	-4557.097	 3633.755	  46.159	1161.660	21.083	     0.000	    98.806	  2494.261	     0.000	     0.000	     1.000	     2.955	    20.345	    54.807	    56.042
140.02	-2702.566	-4558.060	 3633.743	  47.115	1181.127	21.750	     0.000	    96.691	  2523.354	     0.000	     0.000	     1.000	     2.984	    19.945	    54.694	    56.049
141.02	-2703.235	-4559.045	 3633.727	  48.086	1200.939	22.429	     0.000	    94.576	  2552.728	     0.000	     0.000	     1.000	     3.013	    19.557	    54.582	    56.056
142.02	-2703.908	-4560.051	 3633.707	  49.072	1221.100	23.120	     0.000	    92.461	  2582.387	     0.000	     0.000	     1.000	     3.042	    19.180	    54.471	    56.062
143.02	-2704.585	-4561.079	 3633.684	  50.073	1241.613	23.823	     0.000	    90.346	  2612.338	     0.000	     0.000	     1.000	     3.072	    18.813	    54.361	    56.069
144.02	-2705.265	-4562.129	 3633.657	  51.089	1262.481	24.540	     0.000	    88.231	  2642.586	     0.000	     0.000	     1.000	     3.103	    18.458	    54.252	    56.077
145.02	-2705.950	-4563.201	 3633.627	  52.121	1283.710	25.269	     0.000	    86.116	  2673.138	     0.000	     0.000	     1.000	     3.134	    18.113	    54.145	    56.084
146.02	-2706.638	-4564.297	 3633.594	  53.169	1305.302	26.012	     0.000	    84.001	  2703.999	     0.000	     0.000	     1.000	     3.166	    17.778	    54.039	    56.091
147.02	-2707.331	-4565.415	 3633.557	  54.233	1327.263	26.768	     0.000	    81.886	  2735.175	     0.000	     0.000	     1.000	     3.198	    17.453	    53.935	    56.099
148.02	-2708.027	-4566.556	 3633.517	  55.314	1349.597	27.538	     0.000	    79.772	  2766.674	     0.000	     0.000	     1.000	     3.232	    17.137	    53.833	    56.107
149.02	-2708.729	-4567.721	 3633.473	  56.412	1372.308	28.321	     0.000	    77.657	  2798.502	     0.000	     0.000	     1.000	     3.266	    16.831	    53.733	    56.115
150.02	-2709.434	-4568.910	 3633.427	  57.526	1395.402	29.119	     0.000	    75.542	  2830.666	     0.000	     0.000	     1.000	     3.300	    16.533	    53.636	    56.123
151.03	-2710.144	-4570.123	 3633.376	  58.658	1418.885	29.931	     0.000	    73.427	  2863.174	     0.000	     0.000	     1.000	     3.336	    16.244	    53.540	    56.131
152.03	-2710.859	-4571.361	 3633.323	  59.808	1442.762	30.758	     0.000	    71.312	  2896.031	     0.000	     0.000	     1.000	     3.372	    15.964	    53.447	    56.139
153.03	-2711.578	-4572.623	 3633.266	  60.975	1467.039	31.600	     0.000	    69.197	  2929.247	     0.000	     0.000	     1.000	     3.409	    15.691	    53.357	    56.148
154.03	-2712.302	-4573.911	 3633.206	  62.161	1491.723	32.456	     0.000	    67.082	  2962.829	     0.000	     0.000	     1.000	     3.447	    15.427	    53.269	    56.156
155.03	-2713.027	-4575.209	 3633.142	  63.352	1484.062	33.322	     0.000	    67.082	  2962.829	     0.000	     0.000	     0.000	     0.000	    15.495	    53.062	    56.165
156.03	-2713.748	-4576.500	 3633.073	  64.533	1476.426	34.187	     0.000	    67.082	  2962.829	     0.000	     0.000	     0.000	     0.000	    15.585	    52.846	    56.174
157.03	-2714.465	-4577.785	 3632.998	  65.705	1468.815	35.054	     0.000	    67.082	  2962.829	     0.000	     0.000	     0.000	     0.000	    15.678	    52.628	    56.183
158.03	-2715.178	-4579.062	 3632.917	  66.867	1460.815	35.921	     0.000	    67.082	  2962.829	     0.000	     0.000	     0.000	     0.000	    15.779	    52.396	    56.191
159.03	-2715.887	-4580.332	 3632.831	  68.020	1453.256	36.788	     0.000	    67.082	  2962.829	     0.000	     0.000	     0.000	     0.000	    15.880	    52.173	    56.200
160.03	-2716.593	-4581.595	 3632.739	  69.163	1445.722	37.656	     0.000	    67.082	  2962.829	     0.000	     0.000	     0.000	     0.000	    30.983	    51.948	    54.327
161.03	-2717.294	-4582.851	 3632.642	  70.297	1438.213	38.524	     0.000	    67.082	  2962.829	     0.000	     0.000	     0.000	     0.000	   -46.089	    51.721	    47.681
162.03	-2717.992	-4584.100	 3632.540	  71.421	1430.732	39.393	     0.000	    67.082	  2962.829	     0.000	     0.000	     0.000	     0.000	   -61.197	    51.492	    38.083
163.03	-2718.686	-4585.343	 3632.432	  72.536	1423.277	40.262	     0.000	    67.082	  2962.829	     0.000	     0.000	     0.000	     0.000	   -76.306	    51.260	    26.919
164.03	-2719.376	-4586.579	 3632.319	  73.642	1415.848	41.131	     0.000	    67.082	  2962.829	     0.000	     0.000	     0.000	     0.000	   -91.417	    51.026	    14.972
165.03	-2720.062	-4587.807	 3632.201	  74.738	1408.448	42.000	     0.000	    67.082	  2962.829	     0.000	     0.000	     0.000	     0.000	  -106.529	    50.789	     2.686
166.03	-2720.744	-4589.029	 3632.077	  75.825	1401.074	42.870	     0.000	    67.082	  2962.829	     0.000	     0.000	     0.000	     0.000	  -121.641	    50.550	    -9.629
167.03	-2721.423	-4590.244	 3631.947	  76.902	1393.729	43.739	     0.000	    67.082	  2962.829	     0.000	     0.000	     0.000	     0.000	  -136.755	    50.309	   -21.676
168.03	-2722.097	-4591.452	 3631.813	  77.970	1386.412	44.609	     0.000	    67.082	  2962.829	     0.000	     0.000	     0.000	     0.000	  -151.868	    50.065	   -33.055
169.03	-2722.768	-4592.653	 3631.673	  79.028	1379.124	45.479	     0.000	    67.082	  2962.829	     0.000	     0.000	     0.000	     0.000	  -166.981	    49.818	   -43.083
170.03	-2723.435	-4593.848	 3631.527	  80.077	1371.865	46.349	     0.000	    67.082	  2962.829	     0.000	     0.000	     0.000	     0.000	  -179.961	    49.569	   -49.608
171.03	-2724.098	-4595.035	 3631.376	  81.117	1364.635	47.219	     0.000	    67.082	  2962.829	     0.000	     0.000	     0.000	     0.000	  -179.935	    49.317	   -49.383
172.03	-2724.758	-4596.216	 3631.220	  82.147	1357.435	48.090	     0.000	    67.082	  2962.829	     0.000	     0.000	     0.000	     0.000	  -179.908	    49.063	   -49.155
173.03	-2725.413	-4597.390	 3631.059	  83.168	1350.266	48.960	     0.000	    67.082	  2962.829	     0.000	     0.000	     0.000	     0.000	  -179.880	    48.806	   -48.925
174.03	-2726.065	-4598.557	 3630.892	  84.179	1343.127	49.830	     0.000	    67.082	  2962.829	     0.000	     0.000	     0.000	     0.000	  -179.973	    48.546	   -48.573
175.03	-2726.712	-4599.717	 3630.719	  85.181	1336.019	50.701	     0.000	    67.082	  2962.829	     0.000	     0.000	     0.000	     0.000	  -179.946	    48.284	   -48.338
176.03	-2727.356	-4600.870	 3630.542	  86.174	1328.943	51.571	     0.000	    67.082	  2962.829	     0.000	     0.000	     0.000	     0.000	  -179.918	    48.018	   -48.100
177.03	-2727.996	-4602.016	 3630.359	  87.157	1321.898	52.442	     0.000	    67.082	  2962.829	     0.000	     0.000	     0.000	     0.000	  -179.889	    47.750	   -47.861
178.03	-2728.633	-4603.156	 3630.171	  88.131	1314.886	53.312	     0.000	    67.082	  2962.829	     0.000	     0.000	     0.000	     0.000	  -179.986	    47.479	   -47.493
179.03	-2729.265	-4604.288	 3629.977	  89.095	1307.906	54.182	     0.000	    67.082	  2962.829	     0.000	     0.000	     0.000	     0.000	  -179.958	    47.205	   -47.248
180.03	-2729.894	-4605.414	 3629.778	  90.050	1300.960	55.053	     0.000	    67.082	  2962.829	     0.000	     0.000	     0.000	     0.000	  -179.929	    46.929	   -47.000
181.03	-2730.518	-4606.533	 3629.573	  90.996	1294.047	55.923	     0.000	    67.082	  2962.829	     0.000	     0.000	     0.000	     0.000	  -179.885	    46.649	   -46.765
182.03	-2731.139	-4607.645	 3629.364	  91.932	1287.168	56.793	     0.000	    67.082	  2962.829	     0.000	     0.000	     0.000	     0.000	  -179.942	    46.367	   -46.425
183.03	-2731.756	-4608.750	 3629.149	  92.859	1280.324	57.663	     0.000	    67.082	  2962.829	     0.000	     0.000	     0.000	     0.000	  -179.882	    46.081	   -46.199
184.03	-2732.369	-4609.848	 3628.928	  93.777	1273.515	58.534	     0.000	    67.082	  2962.829	     0.000	     0.000	     0.000	     0.000	  -179.940	    45.793	   -45.852
185.03	-2732.979	-4610.940	 3628.702	  94.685	1266.742	59.404	     0.000	    67.082	  2962.829	     0.000	     0.000	     0.000	     0.000	  -179.880	    45.501	   -45.621
186.03	-2733.584	-4612.025	 3628.471	  95.584	1260.004	60.274	     0.000	    67.082	  2962.829	     0.000	     0.000	     0.000	     0.000	  -179.939	    45.206	   -45.267
187.03	-2734.186	-4613.102	 3628.235	  96.473	1253.304	61.144	     0.000	    67.082	  2962.829	     0.000	     0.000	     0.000	     0.000	  -179.877	    44.908	   -45.031
188.03	-2734.784	-4614.173	 3627.993	  97.353	1246.640	62.014	     0.000	    67.082	  2962.829	     0.000	     0.000	     0.000	     0.000	  -179.938	    44.607	   -44.669
189.03	-2735.377	-4615.238	 3627.746	  98.224	1240.013	62.883	     0.000	    67.082	  2962.829	     0.000	     0.000	     0.000	     0.000	  -179.875	    44.303	   -44.428
190.03	-2735.968	-4616.295	 3627.494	  99.085	1233.425	63.753	     0.000	    67.082	  2962.829	     0.000	     0.000	     0.000	     0.000	  -179.937	    43.996	   -44.059
191.03	-2736.554	-4617.345	 3627.236	  99.937	1226.875	64.623	     0.000	    67.082	  2962.829	     0.000	     0.000	     0.000	     0.000	  -179.872	    43.685	   -43.813
192.03	-2737.136	-4618.389	 3626.973	 100.780	1220.365	65.492	     0.000	    67.082	  2962.829	     0.000	     0.000	     0.000	     0.000	  -179.935	    43.371	   -43.436
193.03	-2737.715	-4619.426	 3626.705	 101.614	1213.894	66.362	     0.000	    67.082	  2962.829	     0.000	     0.000	     0.000	     0.000	  -179.870	    43.054	   -43.184
194.03	-2738.290	-4620.456	 3626.431	 102.438	1207.463	67.231	     0.000	    67.082	  2962.829	     0.000	     0.000	     0.000	     0.000	  -179.901	    42.733	   -42.832
195.03	-2738.860	-4621.479	 3626.152	 103.252	1201.074	68.101	     0.000	    67.082	  2962.829	     0.000	     0.000	     0.000	     0.000	  -179.917	    42.409	   -42.493
196.03	-2739.427	-4622.496	 3625.868	 104.058	1194.725	68.970	     0.000	    67.082	  2962.829	     0.000	     0.000	     0.000	     0.000	  -179.933	    42.082	   -42.149
197.03	-2739.991	-4623.505	 3625.578	 104.854	1188.419	69.839	     0.000	    67.082	  2962.829	     0.000	     0.000	     0.000	     0.000	  -179.949	    41.751	   -41.802
198.03	-2740.550	-4624.508	 3625.283	 105.640	1182.155	70.708	     0.000	    67.082	  2962.829	     0.000	     0.000	     0.000	     0.000	  -179.966	    41.417	   -41.451
199.03	-2741.105	-4625.504	 3624.983	 106.418	1175.935	71.577	     0.000	    67.082	  2962.829	     0.000	     0.000	     0.000	     0.000	  -179.983	    41.079	   -41.096
200.03	-2741.657	-4626.493	 3624.678	 107.186	1169.758	72.446	     0.000	    67.082	  2962.829	     0.000	     0.000	     0.000	     0.000	  -179.877	    40.738	   -40.860
201.03	-2742.205	-4627.475	 3624.367	 107.944	1163.626	73.314	     0.000	    67.082	  2962.829	     0.000	     0.000	     0.000	     0.000	  -179.894	    40.393	   -40.499
202.03	-2742.749	-4628.451	 3624.051	 108.694	1157.539	74.183	     0.000	    67.082	  2962.829	     0.000	     0.000	     0.000	     0.000	  -179.911	    40.044	   -40.133
203.03	-2743.289	-4629.419	 3623.730	 109.434	1151.497	75.051	     0.000	    67.082	  2962.829	     0.000	     0.000	     0.000	     0.000	  -179.928	    39.692	   -39.764
204.03	-2743.825	-4630.381	 3623.403	 110.164	1145.502	75.920	     0.000	    67.082	  2962.829	     0.000	     0.000	     0.000	     0.000	  -179.945	    39.336	   -39.391
205.03	-2744.358	-4631.336	 3623.071	 110.886	1139.555	76.788	     0.000	    67.082	  2962.829	     0.000	     0.000	     0.000	     0.000	  -179.963	    38.976	   -39.013
206.03	-2744.886	-4632.284	 3622.734	 111.598	1133.654	77.656	     0.000	    67.082	  2962.829	     0.000	     0.000	     0.000	     0.000	  -179.981	    38.613	   -38.632
207.03	-2745.411	-4633.226	 3622.391	 112.301	1127.803	78.524	     0.000	    67.082	  2962.829	     0.000	     0.000	     0.000	     0.000	  -179.868	    38.246	   -38.378
208.03	-2745.932	-4634.160	 3622.043	 112.994	1122.000	79.392	     0.000	    67.082	  2962.829	     0.000	     0.000	     0.000	     0.000	  -179.886	    37.875	   -37.989
209.03	-2746.449	-4635.088	 3621.690	 113.678	1116.247	80.260	     0.000	    67.082	  2962.829	     0.000	     0.000	     0.000	     0.000	  -179.885	    37.501	   -37.616
210.03	-2746.962	-4636.009	 3621.332	 114.353	1110.544	81.128	     0.000	    67.082	  2962.829	     0.000	     0.000	     0.000	     0.000	  -179.961	    37.122	   -37.161
211.03	-2747.471	-4636.923	 3620.968	 115.019	1104.893	81.996	     0.000	    67.082	  2962.829	     0.000	     0.000	     0.000	     0.000	  -179.922	    36.740	   -36.818
212.03	-2747.976	-4637.831	 3620.600	 115.675	1099.294	82.863	     0.000	    67.082	  2962.829	     0.000	     0.000	     0.000	     0.000	  -179.881	    36.354	   -36.472
213.03	-2748.478	-4638.731	 3620.225	 116.322	1093.747	83.731	     0.000	    67.082	  2962.829	     0.000	     0.000	     0.000	     0.000	  -179.960	    35.964	   -36.004
214.03	-2748.976	-4639.625	 3619.846	 116.959	1088.254	84.598	     0.000	    67.082	  2962.829	     0.000	     0.000	     0.000	     0.000	  -179.919	    35.570	   -35.650
215.03	-2749.470	-4640.512	 3619.461	 117.588	1082.815	85.465	     0.000	    67.082	  2962.829	     0.000	     0.000	     0.000	     0.000	  -179.878	    35.172	   -35.294
216.03	-2749.960	-4641.392	 3619.071	 118.207	1077.431	86.332	     0.000	    67.082	  2962.829	     0.000	     0.000	     0.000	     0.000	  -179.959	    34.770	   -34.811
217.03	-2750.446	-4642.266	 3618.676	 118.816	1072.102	87.199	     0.000	    67.082	  2962.829	     0.000	     0.000	     0.000	     0.000	  -179.917	    34.364	   -34.447
218.03	-2750.928	-4643.132	 3618.276	 119.417	1066.830	88.066	     0.000	    67.082	  2962.829	     0.000	     0.000	     0.000	     0.000	  -179.874	    33.954	   -34.080
219.03	-2751.407	-4643.992	 3617.870	 120.008	1061.615	88.933	     0.000	    67.082	  2962.829	     0.000	     0.000	     0.000	     0.000	  -179.958	    33.540	   -33.583
220.03	-2751.881	-4644.845	 3617.459	 120.590	1056.459	89.800	     0.000	    67.082	  2962.829	     0.000	     0.000	     0.000	     0.000	  -179.915	    33.122	   -33.208
221.03	-2752.352	-4645.691	 3617.043	 121.162	1051.361	90.667	     0.000	    67.082	  2962.829	     0.000	     0.000	     0.000	     0.000	  -179.871	    32.700	   -32.830
222.03	-2752.819	-4646.531	 3616.621	 121.725	1046.322	91.533	     0.000	    67.082	  2962.829	     0.000	     0.000	     0.000	     0.000	  -179.956	    32.274	   -32.318
223.03	-2753.282	-4647.364	 3616.195	 122.279	1041.344	92.400	     0.000	    67.082	  2962.829	     0.000	     0.000	     0.000	     0.000	  -179.912	    31.844	   -31.932
224.03	-2753.741	-4648.189	 3615.763	 122.824	1036.427	93.266	     0.000	    67.082	  2962.829	     0.000	     0.000	     0.000	     0.000	  -179.867	    31.410	   -31.543
225.03	-2754.196	-4649.009	 3615.325	 123.359	1031.573	94.132	     0.000	    67.082	  2962.829	     0.000	     0.000	     0.000	     0.000	  -179.955	    30.972	   -31.017
226.03	-2754.648	-4649.821	 3614.883	 123.886	1026.781	94.999	     0.000	    67.082	  2962.829	     0.000	     0.000	     0.000	     0.000	  -179.910	    30.530	   -30.620
227.03	-2755.095	-4650.626	 3614.435	 124.402	1022.053	95.865	     0.000	    67.082	  2962.829	     0.000	     0.000	     0.000	     0.000	  -179.863	    30.083	   -30.220
228.03	-2755.539	-4651.425	 3613.982	 124.910	1017.389	96.731	     0.000	    67.082	  2962.829	     0.000	     0.000	     0.000	     0.000	  -179.931	    29.633	   -29.702
229.03	-2755.979	-4652.217	 3613.524	 125.408	1012.791	97.597	     0.000	    67.082	  2962.829	     0.000	     0.000	     0.000	     0.000	  -179.930	    29.178	   -29.248
230.03	-2756.415	-4653.002	 3613.061	 125.897	1008.259	98.463	     0.000	    67.082	  2962.829	     0.000	     0.000	     0.000	     0.000	  -179.930	    28.719	   -28.790
231.03	-2756.847	-4653.781	 3612.592	 126.377	1003.794	99.328	     0.000	    67.082	  2962.829	     0.000	     0.000	     0.000	     0.000	  -179.929	    28.257	   -28.328
232.03	-2757.275	-4654.552	 3612.118	 126.847	 999.397	100.194	     0.000	    67.082	  2962.829	     0.000	     0.000	     0.000	     0.000	  -179.929	    27.790	   -27.861
233.03	-2757.699	-4655.317	 3611.639	 127.309	 995.068	101.060	     0.000	    67.082	  2962.829	     0.000	     0.000	     0.000	     0.000	  -179.928	    27.319	   -27.391
234.03	-2758.120	-4656.075	 3611.155	 127.761	 990.810	101.925	     0.000	    67.082	  2962.829	     0.000	     0.000	     0.000	     0.000	  -179.927	    26.844	   -26.917
235.03	-2758.537	-4656.827	 3610.665	 128.203	 986.621	102.791	     0.000	    67.082	  2962.829	     0.000	     0.000	     0.000	     0.000	  -179.927	    26.365	   -26.438
236.03	-2758.949	-4657.571	 3610.170	 128.637	 982.504	103.656	     0.000	    67.082	  2962.829	     0.000	     0.000	     0.000	     0.000	  -179.926	    25.882	   -25.956
237.03	-2759.358	-4658.309	 3609.670	 129.061	 978.460	104.522	     0.000	    67.082	  2962.829	     0.000	     0.000	     0.000	     0.000	  -179.926	    25.395	   -25.470
238.03	-2759.763	-4659.040	 3609.165	 129.475	 974.488	105.387	     0.000	    67.082	  2962.829	     0.000	     0.000	     0.000	     0.000	  -179.925	    24.904	   -24.979
239.03	-2760.165	-4659.764	 3608.654	 129.881	 970.590	106.252	     0.000	    67.082	  2962.829	     0.000	     0.000	     0.000	     0.000	  -179.924	    24.409	   -24.485
240.03	-2760.562	-4660.482	 3608.139	 130.277	 966.766	107.117	     0.000	    67.082	  2962.829	     0.000	     0.000	     0.000	     0.000	  -179.924	    23.910	   -23.987
241.03	-2760.955	-4661.192	 3607.618	 130.664	 963.019	107.982	     0.000	    67.082	  2962.829	     0.000	     0.000	     0.000	     0.000	  -179.923	    23.408	   -23.485
242.03	-2761.345	-4661.896	 3607.092	 131.042	 959.347	108.847	     0.000	    67.082	  2962.829	     0.000	     0.000	     0.000	     0.000	  -179.923	    22.901	   -22.979
243.03	-2761.730	-4662.593	 3606.560	 131.411	 955.753	109.712	     0.000	    67.082	  2962.829	     0.000	     0.000	     0.000	     0.000	  -179.922	    22.391	   -22.469
244.03	-2762.112	-4663.284	 3606.024	 131.770	 952.237	110.577	     0.000	    67.082	  2962.829	     0.000	     0.000	     0.000	     0.000	  -179.921	    21.876	   -21.955
245.03	-2762.490	-4663.967	 3605.482	 132.120	 948.800	111.442	     0.000	    67.082	  2962.829	     0.000	     0.000	     0.000	     0.000	  -179.921	    21.358	   -21.438
246.03	-2762.864	-4664.644	 3604.935	 132.461	 945.443	112.307	     0.000	    67.082	  2962.829	     0.000	     0.000	     0.000	     0.000	  -179.920	    20.837	   -20.916
247.03	-2763.234	-4665.314	 3604.383	 132.792	 942.166	113.171	     0.000	    67.082	  2962.829	     0.000	     0.000	     0.000	     0.000	  -179.920	    20.311	   -20.392
248.03	-2763.601	-4665.978	 3603.826	 133.115	 938.971	114.036	     0.000	    67.082	  2962.829	     0.000	     0.000	     0.000	     0.000	  -179.919	    19.783	   -19.863
249.03	-2763.963	-4666.634	 3603.263	 133.428	 935.857	114.901	     0.000	    67.082	  2962.829	     0.000	     0.000	     0.000	     0.000	  -179.919	    19.250	   -19.331
250.03	-2764.322	-4667.284	 3602.695	 133.731	 932.827	115.765	     0.000	    67.082	  2962.829	     0.000	     0.000	     0.000	     0.000	  -179.918	    18.714	   -18.796
251.03	-2764.676	-4667.927	 3602.122	 134.026	 929.880	116.630	     0.000	    67.082	  2962.829	     0.000	     0.000	     0.000	     0.000	  -179.918	    18.175	   -18.257
252.03	-2765.027	-4668.563	 3601.544	 134.311	 927.017	117.494	     0.000	    67.082	  2962.829	     0.000	     0.000	     0.000	     0.000	  -179.917	    17.632	   -17.715
253.03	-2765.374	-4669.193	 3600.961	 134.587	 924.240	118.359	     0.000	    67.082	  2962.829	     0.000	     0.000	     0.000	     0.000	  -179.917	    17.086	   -17.169
254.03	-2765.717	-4669.815	 3600.372	 134.854	 921.549	119.223	     0.000	    67.082	  2962.829	     0.000	     0.000	     0.000	     0.000	  -179.916	    16.537	   -16.621
255.03	-2766.056	-4670.431	 3599.778	 135.111	 918.945	120.087	     0.000	    67.082	  2962.829	     0.000	     0.000	     0.000	     0.000	  -179.916	    15.984	   -16.069
256.03	-2766.391	-4671.040	 3599.180	 135.359	 916.427	120.952	     0.000	    67.082	  2962.829	     0.000	     0.000	     0.000	     0.000	  -179.915	    15.429	   -15.514
257.03	-2766.723	-4671.643	 3598.575	 135.598	 913.998	121.816	     0.000	    67.082	  2962.829	     0.000	     0.000	     0.000	     0.000	  -179.915	    14.870	   -14.956
258.03	-2767.050	-4672.239	 3597.966	 135.828	 911.658	122.680	     0.000	    67.082	  2962.829	     0.000	     0.000	     0.000	     0.000	  -179.914	    14.309	   -14.395
259.03	-2767.374	-4672.827	 3597.352	 136.049	 909.407	123.544	     0.000	    67.082	  2962.829	     0.000	     0.000	     0.000	     0.000	  -179.914	    13.745	   -13.831
260.03	-2767.693	-4673.410	 3596.732	 136.260	 907.246	124.409	     0.000	    67.082	  2962.829	     0.000	     0.000	     0.000	     0.000	  -179.914	    13.178	   -13.264
261.03	-2768.009	-4673.985	 3596.107	 136.462	 905.176	125.273	     0.000	    67.082	  2962.829	     0.000	     0.000	     0.000	     0.000	  -179.913	    12.608	   -12.695
262.03	-2768.321	-4674.554	 3595.477	 136.655	 903.197	126.137	     0.000	    67.082	  2962.829	     0.000	     0.000	     0.000	     0.000	  -179.913	    12.036	   -12.123
263.03	-2768.629	-4675.116	 3594.842	 136.838	 901.310	127.001	     0.000	    67.082	  2962.829	     0.000	     0.000	     0.000	     0.000	  -179.912	    11.462	   -11.549
264.03	-2768.933	-4675.671	 3594.201	 137.012	 899.515	127.865	     0.000	    67.082	  2962.829	     0.000	     0.000	     0.000	     0.000	  -179.912	    10.885	   -10.973
265.03	-2769.233	-4676.219	 3593.556	 137.177	 897.813	128.729	     0.000	    67.082	  2962.829	     0.000	     0.000	     0.000	     0.000	  -179.912	    10.306	   -10.394
266.03	-2769.530	-4676.761	 3592.905	 137.333	 896.205	129.593	     0.000	    67.082	  2962.829	     0.000	     0.000	     0.000	     0.000	  -179.912	     9.724	    -9.813
267.03	-2769.822	-4677.295	 3592.249	 137.480	 894.691	130.457	     0.000	    67.082	  2962.829	     0.000	     0.000	     0.000	     0.000	  -179.911	     9.141	    -9.230
268.03	-2770.111	-4677.824	 3591.588	 137.617	 893.271	131.322	     0.000	    67.082	  2962.829	     0.000	     0.000	     0.000	     0.000	  -179.911	     8.556	    -8.645
269.03	-2770.395	-4678.345	 3590.921	 137.745	 891.945	132.186	     0.000	    67.082	  2962.829	     0.000	     0.000	     0.000	     0.000	  -179.911	     7.969	    -8.058
270.03	-2770.676	-4678.860	 3590.250	 137.864	 890.715	133.050	     0.000	    67.082	  2962.829	     0.000	     0.000	     0.000	     0.000	  -179.910	     7.380	    -7.470
271.03	-2770.953	-4679.367	 3589.573	 137.973	 889.581	133.914	     0.000	    67.082	  2962.829	     0.000	     0.000	     0.000	     0.000	  -179.910	     6.790	    -6.880
272.03	-2771.226	-4679.868	 3588.891	 138.074	 888.543	134.778	     0.000	    67.082	  2962.829	     0.000	     0.000	     0.000	     0.000	  -179.910	     6.198	    -6.289
273.03	-2771.495	-4680.363	 3588.204	 138.165	 887.601	135.642	     0.000	    67.082	  2962.829	     0.000	     0.000	     0.000	     0.000	  -179.910	     5.606	    -5.696
274.03	-2771.760	-4680.850	 3587.512	 138.247	 886.755	136.506	     0.000	    67.082	  2962.829	     0.000	     0.000	     0.000	     0.000	  -179.910	     5.011	    -5.102
275.03	-2772.021	-4681.331	 3586.815	 138.319	 886.006	137.370	     0.000	    67.082	  2962.829	     0.000	     0.000	     0.000	     0.000	  -179.909	     4.416	    -4.507
276.03	-2772.278	-4681.805	 3586.112	 138.383	 885.355	138.234	     0.000	    67.082	  2962.829	     0.000	     0.000	     0.000	     0.000	  -179.909	     3.820	    -3.911
277.03	-2772.532	-4682.272	 3585.405	 138.437	 884.800	139.098	     0.000	    67.082	  2962.829	     0.000	     0.000	     0.000	     0.000	  -179.909	     3.223	    -3.314
278.03	-2772.781	-4682.733	 3584.692	 138.482	 884.344	139.962	     0.000	    67.082	  2962.829	     0.000	     0.000	     0.000	     0.000	  -179.909	     2.625	    -2.716
279.03	-2773.027	-4683.187	 3583.974	 138.517	 883.984	140.826	     0.000	    67.082	  2962.829	     0.000	     0.000	     0.000	     0.000	  -179.909	     2.027	    -2.118
280.03	-2773.268	-4683.634	 3583.251	 138.544	 883.723	141.690	     0.000	    67.082	  2962.829	     0.000	     0.000	     0.000	     0.000	  -179.909	     1.428	    -1.519
281.03	-2773.506	-4684.074	 3582.522	 138.561	 883.559	142.554	     0.000	    67.082	  2962.829	     0.000	     0.000	     0.000	     0.000	  -179.909	     0.829	    -0.920
282.03	-2773.740	-4684.508	 3581.789	 138.569	 883.493	143.419	     0.000	    67.082	  2962.829	     0.000	     0.000	     0.000	     0.000	  -179.909	     0.230	    -0.321
283.03	-2773.970	-4684.934	 3581.050	 138.568	 883.526	144.283	     0.000	    67.082	  2962.829	     0.000	     0.000	     0.000	     0.000	   179.909	    -0.369	     0.278
284.03	-2774.196	-4685.354	 3580.306	 138.557	 883.655	145.147	     0.000	    67.082	  2962.829	     0.000	     0.000	     0.000	     0.000	   179.909	    -0.968	     0.877
285.03	-2774.418	-4685.768	 3579.557	 138.537	 883.883	146.011	     0.000	    67.082	  2962.829	     0.000	     0.000	     0.000	     0.000	   179.909	    -1.567	     1.476
286.03	-2774.636	-4686.174	 3578.803	 138.508	 884.209	146.876	     0.000	    67.082	  2962.829	     0.000	     0.000	     0.000	     0.000	   179.909	    -2.165	     2.074
287.03	-2774.850	-4686.574	 3578.044	 138.470	 884.632	147.740	     0.000	    67.082	  2962.829	     0.000	     0.000	     0.000	     0.000	   179.909	    -2.763	     2.672
288.03	-2775.060	-4686.967	 3577.280	 138.423	 885.153	148.604	     0.000	    67.082	  2962.829	     0.000	     0.000	     0.000	     0.000	   179.909	    -3.360	     3.270
289.03	-2775.267	-4687.353	 3576.510	 138.366	 885.771	149.469	     0.000	    67.082	  2962.829	     0.000	     0.000	     0.000	     0.000	   179.909	    -3.957	     3.866
290.03	-2775.469	-4687.732	 3575.735	 138.300	 886.486	150.333	     0.000	    67.082	  2962.829	     0.000	     0.000	     0.000	     0.000	   179.910	    -4.553	     4.462
291.03	-2775.668	-4688.105	 3574.955	 138.225	 887.298	151.197	     0.000	    67.082	  2962.829	     0.000	     0.000	     0.000	     0.000	   179.910	    -5.147	     5.057
292.03	-2775.862	-4688.471	 3574.170	 138.140	 888.207	152.062	     0.000	    67.082	  2962.829	     0.000	     0.000	     0.000	     0.000	   179.910	    -5.741	     5.651
293.03	-2776.053	-4688.830	 3573.380	 138.046	 889.212	152.926	     0.000	    67.082	  2962.829	     0.000	     0.000	     0.000	     0.000	   179.910	    -6.333	     6.243
294.03	-2776.240	-4689.183	 3572.585	 137.943	 890.313	153.791	     0.000	    67.082	  2962.829	     0.000	     0.000	     0.000	     0.000	   179.910	    -6.924	     6.834
295.03	-2776.422	-4689.528	 3571.784	 137.831	 891.511	154.656	     0.000	    67.082	  2962.829	     0.000	     0.000	     0.000	     0.000	   179.911	    -7.513	     7.424
296.03	-2776.601	-4689.867	 3570.979	 137.710	 892.803	155.520	     0.000	    67.082	  2962.829	     0.000	     0.000	     0.000	     0.000	   179.911	    -8.101	     8.012
297.03	-2776.776	-4690.199	 3570.168	 137.579	 894.190	156.385	     0.000	    67.082	  2962.829	     0.000	     0.000	     0.000	     0.000	   179.911	    -8.687	     8.598
298.03	-2776.947	-4690.525	 3569.352	 137.439	 895.672	157.250	     0.000	    67.082	  2962.829	     0.000	     0.000	     0.000	     0.000	   179.911	    -9.271	     9.183
299.03	-2777.114	-4690.844	 3568.531	 137.290	 897.248	158.115	     0.000	    67.082	  2962.829	     0.000	     0.000	     0.000	     0.000	   179.912	    -9.853	     9.765
300.03	-2777.277	-4691.155	 3567.705	 137.132	 898.918	158.980	     0.000	    67.082	  2962.829	     0.000	     0.000	     0.000	     0.000	   179.912	   -10.433	    10.345
301.03	-2777.436	-4691.461	 3566.874	 136.964	 900.680	159.845	     0.000	    67.082	  2962.829	     0.000	     0.000	     0.000	     0.000	   179.912	   -11.011	    10.924
302.03	-2777.591	-4691.759	 3566.037	 136.787	 902.535	160.710	     0.000	    67.082	  2962.829	     0.000	     0.000	     0.000	     0.000	   179.913	   -11.587	    11.500
303.03	-2777.743	-4692.051	 3565.195	 136.601	 904.483	161.575	     0.000	    67.082	  2962.829	     0.000	     0.000	     0.000	     0.000	   179.913	   -12.160	    12.073
304.03	-2777.890	-4692.335	 3564.349	 136.406	 906.521	162.440	     0.000	    67.082	  2962.829	     0.000	     0.000	     0.000	     0.000	   179.913	   -12.731	    12.644
305.03	-2778.033	-4692.613	 3563.497	 136.201	 908.651	163.305	     0.000	    67.082	  2962.829	     0.000	     0.000	     0.000	     0.000	   179.914	   -13.299	    13.213
306.03	-2778.173	-4692.885	 3562.640	 135.987	 910.871	164.171	     0.000	    67.082	  2962.829	     0.000	     0.000	     0.000	     0.000	   179.943	   -13.864	    13.807
307.03	-2778.308	-4693.149	 3561.778	 135.764	 913.180	165.036	     0.000	    67.082	  2962.829	     0.000	     0.000	     0.000	     0.000	   179.943	   -14.427	    14.370
308.03	-2778.440	-4693.407	 3560.910	 135.532	 915.578	165.902	     0.000	    67.082	  2962.829	     0.000	     0.000	     0.000	     0.000	   179.943	   -14.987	    14.930
309.03	-2778.567	-4693.658	 3560.038	 135.290	 918.065	166.767	     0.000	    67.082	  2962.829	     0.000	     0.000	     0.000	     0.000	   179.944	   -15.544	    15.487
310.03	-2778.691	-4693.903	 3559.160	 135.040	 920.639	167.633	     0.000	    67.082	  2962.829	     0.000	     0.000	     0.000	     0.000	   179.944	   -16.097	    16.041
311.03	-2778.810	-4694.140	 3558.278	 134.779	 923.301	168.499	     0.000	    67.082	  2962.829	     0.000	     0.000	     0.000	     0.000	   179.944	   -16.648	    16.592
312.03	-2778.926	-4694.371	 3557.390	 134.510	 926.048	169.365	     0.000	    67.082	  2962.829	     0.000	     0.000	     0.000	     0.000	   179.945	   -17.195	    17.140
313.03	-2779.038	-4694.595	 3556.497	 134.231	 928.881	170.231	     0.000	    67.082	  2962.829	     0.000	     0.000	     0.000	     0.000	   179.945	   -17.740	    17.685
314.03	-2779.146	-4694.812	 3555.599	 133.944	 931.798	171.097	     0.000	    67.082	  2962.829	     0.000	     0.000	     0.000	     0.000	   179.945	   -18.281	    18.226
315.03	-2779.249	-4695.022	 3554.696	 133.647	 934.800	171.963	     0.000	    67.082	  2962.829	     0.000	     0.000	     0.000	     0.000	   179.946	   -18.818	    18.764
316.03	-2779.349	-4695.226	 3553.787	 133.340	 937.884	172.829	     0.000	    67.082	  2962.829	     0.000	     0.000	     0.000	     0.000	   179.946	   -19.352	    19.298
317.03	-2779.445	-4695.423	 3552.874	 133.025	 941.051	173.695	     0.000	    67.082	  2962.829	     0.000	     0.000	     0.000	     0.000	   179.946	   -19.883	    19.829
318.03	-2779.537	-4695.613	 3551.955	 132.700	 944.300	174.562	     0.000	    67.082	  2962.829	     0.000	     0.000	     0.000	     0.000	   179.947	   -20.409	    20.356
319.03	-2779.625	-4695.797	 3551.031	 132.366	 947.629	175.428	     0.000	    67.082	  2962.829	     0.000	     0.000	     0.000	     0.000	   179.947	   -20.933	    20.880
320.03	-2779.709	-4695.973	 3550.102	 132.022	 951.038	176.295	     0.000	    67.082	  2962.829	     0.000	     0.000	     0.000	     0.000	   179.947	   -21.452	    21.400
321.03	-2779.789	-4696.143	 3549.168	 131.670	 954.527	177.162	     0.000	    67.082	  2962.829	     0.000	     0.000	     0.000	     0.000	   179.948	   -21.968	    21.916
322.03	-2779.865	-4696.306	 3548.229	 131.308	 958.094	178.029	     0.000	    67.082	  2962.829	     0.000	     0.000	     0.000	     0.000	   179.948	   -22.480	    22.429
323.03	-2779.937	-4696.462	 3547.285	 130.937	 961.738	178.896	     0.000	    67.082	  2962.829	     0.000	     0.000	     0.000	     0.000	   179.949	   -22.989	    22.937
324.03	-2780.005	-4696.612	 3546.336	 130.556	 965.459	179.763	     0.000	    67.082	  2962.829	     0.000	     0.000	     0.000	     0.000	   179.949	   -23.493	    23.442
325.03	-2780.069	-4696.755	 3545.381	 130.167	 969.256	180.630	     0.000	    67.082	  2962.829	     0.000	     0.000	     0.000	     0.000	   179.949	   -23.994	    23.943
326.03	-2780.129	-4696.891	 3544.421	 129.768	 973.128	181.498	     0.000	    67.082	  2962.829	     0.000	     0.000	     0.000	     0.000	   179.950	   -24.490	    24.440
327.03	-2780.185	-4697.020	 3543.457	 129.360	 977.074	182.365	     0.000	    67.082	  2962.829	     0.000	     0.000	     0.000	     0.000	   179.950	   -24.983	    24.933
328.03	-2780.237	-4697.142	 3542.487	 128.942	 981.093	183.233	     0.000	    67.082	  2962.829	     0.000	     0.000	     0.000	     0.000	   179.951	   -25.472	    25.422
329.03	-2780.285	-4697.258	 3541.512	 128.515	 985.184	184.101	     0.000	    67.082	  2962.829	     0.000	     0.000	     0.000	     0.000	   179.951	   -25.957	    25.908
330.03	-2780.329	-4697.367	 3540.532	 128.079	 989.348	184.969	     0.000	    67.082	  2962.829	     0.000	     0.000	     0.000	     0.000	   179.951	   -26.437	    26.389
331.03	-2780.369	-4697.469	 3539.546	 127.634	 993.582	185.837	     0.000	    67.082	  2962.829	     0.000	     0.000	     0.000	     0.000	   179.952	   -26.914	    26.866
332.03	-2780.405	-4697.564	 3538.556	 127.180	 997.885	186.705	     0.000	    67.082	  2962.829	     0.000	     0.000	     0.000	     0.000	   179.952	   -27.387	    27.339
333.03	-2780.437	-4697.653	 3537.560	 126.716	1002.258	187.573	     0.000	    67.082	  2962.829	     0.000	     0.000	     0.000	     0.000	   179.953	   -27.855	    27.808
334.03	-2780.465	-4697.735	 3536.560	 126.243	1006.699	188.442	     0.000	    67.082	  2962.829	     0.000	     0.000	     0.000	     0.000	   179.953	   -28.320	    28.273
335.03	-2780.489	-4697.810	 3535.554	 125.760	1011.208	189.310	     0.000	    67.082	  2962.829	     0.000	     0.000	     0.000	     0.000	   179.953	   -28.780	    28.734
336.03	-2780.510	-4697.878	 3534.543	 125.269	1015.782	190.179	     0.000	    67.082	  2962.829	     0.000	     0.000	     0.000	     0.000	   179.954	   -29.237	    29.191
337.03	-2780.526	-4697.939	 3533.527	 124.768	1020.423	191.048	     0.000	    67.082	  2962.829	     0.000	     0.000	     0.000	     0.000	   179.954	   -29.689	    29.643
338.03	-2780.538	-4697.994	 3532.506	 124.258	1025.128	191.917	     0.000	    67.082	  2962.829	     0.000	     0.000	     0.000	     0.000	   179.909	   -30.137	    30.046
339.03	-2780.546	-4698.042	 3531.480	 123.738	1029.897	192.786	     0.000	    67.082	  2962.829	     0.000	     0.000	     0.000	     0.000	   179.865	   -30.582	    30.446
340.03	-2780.550	-4698.083	 3530.449	 123.210	1034.730	193.656	     0.000	    67.082	  2962.829	     0.000	     0.000	     0.000	     0.000	   179.955	   -31.022	    30.977
341.03	-2780.550	-4698.117	 3529.412	 122.672	1039.624	194.525	     0.000	    67.082	  2962.829	     0.000	     0.000	     0.000	     0.000	   179.912	   -31.458	    31.369
342.03	-2780.546	-4698.144	 3528.370	 122.124	1044.580	195.395	     0.000	    67.082	  2962.829	     0.000	     0.000	     0.000	     0.000	   179.868	   -31.889	    31.758
343.03	-2780.538	-4698.165	 3527.324	 121.568	1049.597	196.265	     0.000	    67.082	  2962.829	     0.000	     0.000	     0.000	     0.000	   179.957	   -32.317	    32.274
344.03	-2780.526	-4698.179	 3526.272	 121.002	1054.674	197.135	     0.000	    67.082	  2962.829	     0.000	     0.000	     0.000	     0.000	   179.914	   -32.741	    32.655
345.03	-2780.510	-4698.186	 3525.215	 120.427	1059.810	198.005	     0.000	    67.082	  2962.829	     0.000	     0.000	     0.000	     0.000	   179.872	   -33.161	    33.033
346.03	-2780.490	-4698.186	 3524.153	 119.842	1065.003	198.875	     0.000	    67.082	  2962.829	     0.000	     0.000	     0.000	     0.000	   179.958	   -33.576	    33.534
347.03	-2780.466	-4698.180	 3523.086	 119.248	1070.255	199.746	     0.000	    67.082	  2962.829	     0.000	     0.000	     0.000	     0.000	   179.916	   -33.988	    33.905
348.03	-2780.438	-4698.166	 3522.013	 118.645	1075.563	200.617	     0.000	    67.082	  2962.829	     0.000	     0.000	     0.000	     0.000	   179.876	   -34.396	    34.272
349.03	-2780.406	-4698.146	 3520.936	 118.033	1080.927	201.488	     0.000	    67.082	  2962.829	     0.000	     0.000	     0.000	     0.000	   179.959	   -34.799	    34.758
350.03	-2780.370	-4698.119	 3519.853	 117.411	1086.346	202.359	     0.000	    67.082	  2962.829	     0.000	     0.000	     0.000	     0.000	   179.919	   -35.199	    35.118
351.03	-2780.329	-4698.086	 3518.766	 116.781	1091.820	203.230	     0.000	    67.082	  2962.829	     0.000	     0.000	     0.000	     0.000	   179.879	   -35.595	    35.474
352.03	-2780.285	-4698.045	 3517.673	 116.140	1097.347	204.102	     0.000	    67.082	  2962.829	     0.000	     0.000	     0.000	     0.000	   179.960	   -35.987	    35.947
353.03	-2780.237	-4697.998	 3516.575	 115.491	1102.927	204.973	     0.000	    67.082	  2962.829	     0.000	     0.000	     0.000	     0.000	   179.921	   -36.375	    36.296
354.03	-2780.185	-4697.944	 3515.472	 114.832	1108.560	205.845	     0.000	    67.082	  2962.829	     0.000	     0.000	     0.000	     0.000	   179.883	   -36.759	    36.641
355.03	-2780.128	-4697.883	 3514.364	 114.164	1114.243	206.717	     0.000	    67.082	  2962.829	     0.000	     0.000	     0.000	     0.000	   179.961	   -37.139	    37.100
356.03	-2780.068	-4697.815	 3513.250	 113.486	1119.978	207.590	     0.000	    67.082	  2962.829	     0.000	     0.000	     0.000	     0.000	   179.923	   -37.515	    37.439
357.03	-2780.004	-4697.740	 3512.132	 112.800	1125.762	208.462	     0.000	    67.082	  2962.829	     0.000	     0.000	     0.000	     0.000	   179.924	   -37.888	    37.812
358.03	-2779.935	-4697.659	 3511.009	 112.104	1131.596	209.335	     0.000	    67.082	  2962.829	     0.000	     0.000	     0.000	     0.000	   179.944	   -38.256	    38.200
359.03	-2779.863	-4697.571	 3509.880	 111.398	1137.478	210.208	     0.000	    67.082	  2962.829	     0.000	     0.000	     0.000	     0.000	   179.963	   -38.621	    38.584
360.03	-2779.786	-4697.476	 3508.746	 110.684	1143.409	211.081	     0.000	    67.082	  2962.829	     0.000	     0.000	     0.000	     0.000	   179.982	   -38.983	    38.964
361.03	-2779.705	-4697.374	 3507.607	 109.960	1149.386	211.954	     0.000	    67.082	  2962.829	     0.000	     0.000	     0.000	     0.000	   179.873	   -39.340	    39.213
362.03	-2779.621	-4697.265	 3506.463	 109.226	1155.410	212.828	     0.000	    67.082	  2962.829	     0.000	     0.000	     0.000	     0.000	   179.892	   -39.694	    39.586
363.03	-2779.532	-4697.150	 3505.314	 108.484	1161.480	213.701	     0.000	    67.082	  2962.829	     0.000	     0.000	     0.000	     0.000	   179.911	   -40.044	    39.955
364.03	-2779.439	-4697.028	 3504.160	 107.732	1167.596	214.575	     0.000	    67.082	  2962.829	     0.000	     0.000	     0.000	     0.000	   179.929	   -40.391	    40.320
365.03	-2779.342	-4696.899	 3503.001	 106.970	1173.756	215.450	     0.000	    67.082	  2962.829	     0.000	     0.000	     0.000	     0.000	   179.948	   -40.734	    40.681
366.03	-2779.241	-4696.763	 3501.836	 106.200	1179.960	216.324	     0.000	    67.082	  2962.829	     0.000	     0.000	     0.000	     0.000	   179.965	   -41.073	    41.039
367.03	-2779.136	-4696.620	 3500.667	 105.420	1186.207	217.199	     0.000	    67.082	  2962.829	     0.000	     0.000	     0.000	     0.000	   179.983	   -41.409	    41.392
368.03	-2779.027	-4696.470	 3499.492	 104.630	1192.497	218.074	     0.000	    67.082	  2962.829	     0.000	     0.000	     0.000	     0.000	   179.881	   -41.742	    41.623
369.03	-2778.914	-4696.314	 3498.312	 103.832	1198.830	218.949	     0.000	    67.082	  2962.829	     0.000	     0.000	     0.000	     0.000	   179.899	   -42.071	    41.970
370.03	-2778.797	-4696.151	 3497.127	 103.024	1205.204	219.824	     0.000	    67.082	  2962.829	     0.000	     0.000	     0.000	     0.000	   179.917	   -42.396	    42.313
371.03	-2778.676	-4695.981	 3495.937	 102.207	1211.619	220.700	     0.000	    67.082	  2962.829	     0.000	     0.000	     0.000	     0.000	   179.934	   -42.718	    42.653
372.03	-2778.550	-4695.804	 3494.742	 101.380	1218.074	221.575	     0.000	    67.082	  2962.829	     0.000	     0.000	     0.000	     0.000	   179.984	   -43.037	    43.021
373.03	-2778.421	-4695.620	 3493.542	 100.544	1224.570	222.451	     0.000	    67.082	  2962.829	     0.000	     0.000	     0.000	     0.000	   179.919	   -43.353	    43.272
374.03	-2778.287	-4695.429	 3492.336	  99.699	1231.104	223.328	     0.000	    67.082	  2962.829	     0.000	     0.000	     0.000	     0.000	   179.984	   -43.665	    43.649
375.03	-2778.149	-4695.232	 3491.126	  98.844	1237.678	224.204	     0.000	    67.082	  2962.829	     0.000	     0.000	     0.000	     0.000	   179.921	   -43.974	    43.895
376.03	-2778.008	-4695.028	 3489.910	  97.980	1244.289	225.081	     0.000	    67.082	  2962.829	     0.000	     0.000	     0.000	     0.000	   179.984	   -44.279	    44.264
377.03	-2777.862	-4694.817	 3488.689	  97.106	1250.939	225.958	     0.000	    67.082	  2962.829	     0.000	     0.000	     0.000	     0.000	   179.923	   -44.582	    44.504
378.03	-2777.712	-4694.599	 3487.463	  96.224	1257.625	226.836	     0.000	    67.082	  2962.829	     0.000	     0.000	     0.000	     0.000	   179.985	   -44.881	    44.866
379.03	-2777.558	-4694.374	 3486.232	  95.332	1264.349	227.713	     0.000	    67.082	  2962.829	     0.000	     0.000	     0.000	     0.000	   179.924	   -45.177	    45.101
380.03	-2777.400	-4694.142	 3484.996	  94.430	1271.108	228.591	     0.000	    67.082	  2962.829	     0.000	     0.000	     0.000	     0.000	   179.985	   -45.470	    45.455
381.03	-2777.238	-4693.904	 3483.755	  93.519	1277.903	229.469	     0.000	    67.082	  2962.829	     0.000	     0.000	     0.000	     0.000	   179.926	   -45.760	    45.686
382.03	-2777.071	-4693.659	 3482.509	  92.599	1284.733	230.347	     0.000	    67.082	  2962.829	     0.000	     0.000	     0.000	     0.000	   179.985	   -46.047	    46.032
383.03	-2776.901	-4693.406	 3481.257	  91.670	1291.598	231.226	     0.000	    67.082	  2962.829	     0.000	     0.000	     0.000	     0.000	   179.927	   -46.331	    46.258
384.03	-2776.726	-4693.147	 3480.001	  90.731	1298.497	232.105	     0.000	    67.082	  2962.829	     0.000	     0.000	     0.000	     0.000	   179.986	   -46.612	    46.598
385.03	-2776.548	-4692.881	 3478.739	  89.782	1305.430	232.984	     0.000	    67.082	  2962.829	     0.000	     0.000	     0.000	     0.000	   179.943	   -46.890	    46.833
386.03	-2776.365	-4692.609	 3477.472	  88.825	1312.397	233.864	     0.000	    67.082	  2962.829	     0.000	     0.000	     0.000	     0.000	   179.915	   -47.165	    47.081
387.03	-2776.178	-4692.329	 3476.200	  87.857	1319.396	234.743	     0.000	    67.082	  2962.829	     0.000	     0.000	     0.000	     0.000	   179.888	   -47.437	    47.326
388.03	-2775.987	-4692.042	 3474.923	  86.881	1326.427	235.623	     0.000	    67.082	  2962.829	     0.000	     0.000	     0.000	     0.000	   179.986	   -47.707	    47.693
389.03	-2775.792	-4691.749	 3473.641	  85.895	1333.491	236.504	     0.000	    67.082	  2962.829	     0.000	     0.000	     0.000	     0.000	   179.959	   -47.973	    47.932
390.03	-2775.593	-4691.449	 3472.353	  84.900	1340.586	237.384	     0.000	    67.082	  2962.829	     0.000	     0.000	     0.000	     0.000	   179.932	   -48.237	    48.170
391.03	-2775.389	-4691.142	 3471.061	  83.895	1347.712	238.265	     0.000	    67.082	  2962.829	     0.000	     0.000	     0.000	     0.000	   179.906	   -48.498	    48.404
392.03	-2775.182	-4690.828	 3469.763	  82.881	1354.869	239.146	     0.000	    67.082	  2962.829	     0.000	     0.000	     0.000	     0.000	   179.880	   -48.757	    48.637
393.03	-2774.970	-4690.507	 3468.460	  81.858	1362.057	240.028	     0.000	    67.082	  2962.829	     0.000	     0.000	     0.000	     0.000	   179.974	   -49.012	    48.986
394.03	-2774.755	-4690.179	 3467.152	  80.825	1369.274	240.910	     0.000	    67.082	  2962.829	     0.000	     0.000	     0.000	     0.000	   179.948	   -49.265	    49.213
395.03	-2774.535	-4689.844	 3465.839	  79.783	1376.521	241.792	     0.000	    67.082	  2962.829	     0.000	     0.000	     0.000	     0.000	   179.923	   -49.516	    49.438
396.03	-2774.311	-4689.503	 3464.521	  78.731	1383.797	242.674	     0.000	    67.082	  2962.829	     0.000	     0.000	     0.000	     0.000	   179.898	   -49.764	    49.661
397.03	-2774.082	-4689.155	 3463.198	  77.670	1391.102	243.557	     0.000	    67.082	  2962.829	     0.000	     0.000	     0.000	     0.000	   179.886	   -50.009	    49.895
398.03	-2773.850	-4688.799	 3461.870	  76.600	1398.435	244.440	     0.000	    67.082	  2962.829	     0.000	     0.000	     0.000	     0.000	   179.887	   -50.251	    50.139
399.03	-2773.614	-4688.437	 3460.536	  75.520	1405.797	245.323	     0.000	    67.082	  2962.829	     0.000	     0.000	     0.000	     0.000	   179.889	   -50.492	    50.380
400.03	-2773.373	-4688.068	 3459.197	  74.431	1413.186	246.207	     0.000	    67.082	  2962.829	     0.000	     0.000	     0.000	     0.000	   179.890	   -50.729	    50.619
401.03	-2773.128	-4687.692	 3457.854	  73.332	1420.602	247.091	     0.000	    67.082	  2962.829	     0.000	     0.000	     0.000	     0.000	   179.891	   -50.965	    50.856
402.03	-2772.879	-4687.309	 3456.505	  72.224	1428.046	247.975	     0.000	    67.082	  2962.829	     0.000	     0.000	     0.000	     0.000	   179.892	   -51.198	    51.090
403.03	-2772.626	-4686.919	 3455.151	  71.106	1435.516	248.859	     0.000	    67.082	  2962.829	     0.000	     0.000	     0.000	     0.000	   179.893	   -51.428	    51.321
404.03	-2772.369	-4686.523	 3453.791	  69.979	1443.013	249.744	     0.000	    67.082	  2962.829	     0.000	     0.000	     0.000	     0.000	   179.894	   -51.656	    51.550
405.03	-2772.108	-4686.119	 3452.427	  68.843	1450.536	250.630	     0.000	    67.082	  2962.829	     0.000	     0.000	     0.000	     0.000	   179.895	   -51.882	    51.777
406.03	-2771.842	-4685.709	 3451.060	  67.699	1449.701	251.514	     0.000	    66.805	  2972.094	     0.000	     0.000	     0.750	     1.714	   179.895	   -52.106	    52.002
407.03	-2771.576	-4685.297	 3449.703	  66.558	1434.759	252.388	     0.000	    66.125	  2994.900	     0.000	     0.000	     1.000	     2.423	   179.895	   -52.332	    52.227
408.03	-2771.310	-4684.885	 3448.363	  65.427	1418.524	253.249	     0.000	    65.420	  3018.731	     0.000	     0.000	     1.000	     2.442	   179.894	   -52.559	    52.453
409.03	-2771.044	-4684.473	 3447.040	  64.305	1402.127	254.095	     0.000	    64.715	  3042.749	     0.000	     0.000	     1.000	     2.461	   179.893	   -52.787	    52.681
410.03	-2770.779	-4684.061	 3445.735	  63.193	1385.565	254.928	     0.000	    64.010	  3066.958	     0.000	     0.000	     1.000	     2.481	   179.893	   -53.018	    52.911
411.03	-2770.514	-4683.649	 3444.447	  62.091	1368.835	255.746	     0.000	    63.305	  3091.361	     0.000	     0.000	     1.000	     2.501	   179.892	   -53.250	    53.142
412.03	-2770.249	-4683.237	 3443.177	  60.999	1351.933	256.550	     0.000	    62.600	  3115.961	     0.000	     0.000	     1.000	     2.521	   179.891	   -53.484	    53.376
413.03	-2769.985	-4682.827	 3441.925	  59.917	1334.857	257.340	     0.000	    61.895	  3140.761	     0.000	     0.000	     1.000	     2.542	   179.890	   -53.720	    53.611
414.03	-2769.722	-4682.416	 3440.691	  58.846	1317.604	258.115	     0.000	    61.190	  3165.765	     0.000	     0.000	     1.000	     2.563	   179.889	   -53.959	    53.848
415.03	-2769.460	-4682.007	 3439.476	  57.785	1300.169	258.876	     0.000	    60.485	  3190.975	     0.000	     0.000	     1.000	     2.584	   179.889	   -54.199	    54.087
416.03	-2769.198	-4681.599	 3438.278	  56.736	1282.551	259.622	     0.000	    59.780	  3216.396	     0.000	     0.000	     1.000	     2.606	   179.888	   -54.441	    54.329
417.03	-2768.938	-4681.192	 3437.099	  55.698	1264.744	260.354	     0.000	    59.075	  3242.031	     0.000	     0.000	     1.000	     2.628	   179.887	   -54.686	    54.572
418.03	-2768.679	-4680.786	 3435.939	  54.671	1246.747	261.072	     0.000	    58.370	  3267.883	     0.000	     0.000	     1.000	     2.650	   179.886	   -54.932	    54.818
419.03	-2768.420	-4680.381	 3434.798	  53.656	1228.554	261.775	     0.000	    57.665	  3293.957	     0.000	     0.000	     1.000	     2.673	   179.987	   -55.181	    55.169
420.03	-2768.163	-4679.979	 3433.675	  52.653	1210.162	262.463	     0.000	    56.960	  3320.255	     0.000	     0.000	     1.000	     2.696	   179.961	   -55.433	    55.394
421.03	-2767.908	-4679.578	 3432.572	  51.662	1191.568	263.137	     0.000	    56.255	  3346.783	     0.000	     0.000	     1.000	     2.719	   179.935	   -55.687	    55.622
422.03	-2767.654	-4679.178	 3431.488	  50.684	1172.768	263.796	     0.000	    55.550	  3373.543	     0.000	     0.000	     1.000	     2.743	   179.908	   -55.943	    55.851
423.03	-2767.402	-4678.782	 3430.424	  49.718	1153.757	264.440	     0.000	    54.845	  3400.541	     0.000	     0.000	     1.000	     2.768	   179.880	   -56.203	    56.083
424.03	-2767.151	-4678.387	 3429.379	  48.765	1134.531	265.069	     0.000	    54.140	  3427.780	     0.000	     0.000	     1.000	     2.793	   179.973	   -56.465	    56.438
425.03	-2766.902	-4677.995	 3428.354	  47.826	1115.086	265.684	     0.000	    53.435	  3455.265	     0.000	     0.000	     1.000	     2.818	   179.946	   -56.730	    56.676
426.03	-2766.655	-4677.605	 3427.349	  46.900	1095.417	266.284	     0.000	    52.730	  3482.999	     0.000	     0.000	     1.000	     2.844	   179.918	   -56.998	    56.916
427.03	-2766.410	-4677.219	 3426.364	  45.987	1075.521	266.868	     0.000	    52.026	  3510.989	     0.000	     0.000	     1.000	     2.870	   179.889	   -57.270	    57.159
428.03	-2766.167	-4676.835	 3425.400	  45.089	1055.392	267.438	     0.000	    51.321	  3539.238	     0.000	     0.000	     1.000	     2.897	   179.986	   -57.545	    57.531
429.03	-2765.927	-4676.455	 3424.456	  44.205	1035.026	267.993	     0.000	    50.616	  3567.752	     0.000	     0.000	     1.000	     2.924	   179.957	   -57.823	    57.780
430.03	-2765.688	-4676.078	 3423.532	  43.336	1014.418	268.533	     0.000	    49.911	  3596.535	     0.000	     0.000	     1.000	     2.952	   179.914	   -58.105	    58.019
431.03	-2765.453	-4675.705	 3422.630	  42.482	 993.562	269.058	     0.000	    49.206	  3625.592	     0.000	     0.000	     1.000	     2.980	   179.971	   -58.391	    58.362
432.03	-2765.220	-4675.336	 3421.748	  41.643	 972.454	269.568	     0.000	    48.501	  3654.929	     0.000	     0.000	     1.000	     3.009	   179.911	   -58.681	    58.592
433.03	-2764.990	-4674.971	 3420.888	  40.820	 951.088	270.063	     0.000	    47.796	  3684.551	     0.000	     0.000	     1.000	     3.038	   179.970	   -58.975	    58.945
434.03	-2764.763	-4674.610	 3420.050	  40.012	 929.459	270.542	     0.000	    47.091	  3714.464	     0.000	     0.000	     1.000	     3.068	   179.909	   -59.273	    59.182
435.03	-2764.538	-4674.254	 3419.233	  39.221	 907.561	271.007	     0.000	    46.386	  3744.674	     0.000	     0.000	     1.000	     3.099	   179.969	   -59.577	    59.546
436.03	-2764.318	-4673.903	 3418.437	  38.446	 885.389	271.456	     0.000	    45.681	  3775.186	     0.000	     0.000	     1.000	     3.130	   179.906	   -59.885	    59.791
437.03	-2764.100	-4673.556	 3417.664	  37.688	 862.936	271.890	     0.000	    44.976	  3806.007	     0.000	     0.000	     1.000	     3.162	   179.968	   -60.198	    60.166
438.03	-2763.886	-4673.215	 3416.913	  36.947	 840.196	272.309	     0.000	    44.271	  3837.143	     0.000	     0.000	     1.000	     3.194	   179.903	   -60.517	    60.420
439.03	-2763.676	-4672.880	 3416.184	  36.224	 817.164	272.712	     0.000	    43.566	  3868.600	     0.000	     0.000	     1.000	     3.227	   179.950	   -60.842	    60.793
440.03	-2763.469	-4672.550	 3415.478	  35.519	 793.832	273.101	     0.000	    42.861	  3900.386	     0.000	     0.000	     1.000	     3.261	   179.966	   -61.173	    61.140
441.03	-2763.267	-4672.227	 3414.795	  34.832	 770.193	273.474	     0.000	    42.156	  3932.506	     0.000	     0.000	     1.000	     3.296	   179.983	   -61.511	    61.494
442.03	-2763.068	-4671.910	 3414.135	  34.164	 746.241	273.831	     0.000	    41.451	  3964.969	     0.000	     0.000	     1.000	     3.331	   179.877	   -61.856	    61.733
443.03	-2762.874	-4671.599	 3413.498	  33.515	 721.969	274.174	     0.000	    40.746	  3997.781	     0.000	     0.000	     1.000	     3.367	   179.893	   -62.209	    62.101
444.03	-2762.685	-4671.296	 3412.884	  32.886	 697.369	274.501	     0.000	    40.041	  4030.951	     0.000	     0.000	     1.000	     3.404	   179.908	   -62.569	    62.478
445.03	-2762.500	-4670.999	 3412.294	  32.276	 672.434	274.813	     0.000	    39.336	  4064.485	     0.000	     0.000	     1.000	     3.442	   179.925	   -62.939	    62.864
446.03	-2762.320	-4670.711	 3411.728	  31.687	 647.156	275.110	     0.000	    38.631	  4098.393	     0.000	     0.000	     1.000	     3.480	   179.923	   -63.318	    63.241
447.03	-2762.145	-4670.430	 3411.186	  31.119	 621.527	275.392	     0.000	    37.926	  4132.683	     0.000	     0.000	     1.000	     3.520	   179.881	   -63.708	    63.589
448.03	-2761.976	-4670.158	 3410.668	  30.571	 595.538	275.659	     0.000	    37.221	  4167.362	     0.000	     0.000	     1.000	     3.560	   179.959	   -64.109	    64.068
449.03	-2761.812	-4669.894	 3410.175	  30.046	 569.181	275.910	     0.000	    36.516	  4202.441	     0.000	     0.000	     1.000	     3.601	   179.916	   -64.522	    64.438
450.03	-2761.654	-4669.639	 3409.706	  29.543	 542.447	276.146	     0.000	    35.811	  4237.929	     0.000	     0.000	     1.000	     3.643	   179.870	   -64.948	    64.818
451.03	-2761.502	-4669.394	 3409.262	  29.062	 515.327	276.367	     0.000	    35.106	  4273.834	     0.000	     0.000	     1.000	     3.687	   179.955	   -65.390	    65.345
452.03	-2761.356	-4669.158	 3408.843	  28.605	 487.812	276.574	     0.000	    34.401	  4310.168	     0.000	     0.000	     1.000	     3.731	   179.883	   -65.848	    65.732
453.03	-2761.216	-4668.933	 3408.449	  28.171	 459.891	276.765	     0.000	    33.696	  4346.940	     0.000	     0.000	     1.000	     3.776	   179.879	   -66.325	    66.203
454.03	-2761.083	-4668.718	 3408.081	  27.761	 431.555	276.942	     0.000	    32.992	  4384.162	     0.000	     0.000	     1.000	     3.822	   179.873	   -66.822	    66.695
455.03	-2760.958	-4668.514	 3407.739	  27.376	 402.793	277.104	     0.000	    32.287	  4421.844	     0.000	     0.000	     1.000	     3.870	   179.867	   -67.343	    67.210
456.03	-2760.839	-4668.322	 3407.422	  27.016	 373.595	277.251	     0.000	    31.582	  4459.997	     0.000	     0.000	     1.000	     3.919	   179.860	   -67.892	    67.751
457.03	-2760.728	-4668.142	 3407.131	  26.683	 343.949	277.384	     0.000	    30.877	  4498.635	     0.000	     0.000	     1.000	     3.969	   179.911	   -68.471	    68.382
458.03	-2760.625	-4667.974	 3406.867	  26.375	 313.845	277.503	     0.000	    30.172	  4537.769	     0.000	     0.000	     1.000	     4.020	   179.905	   -69.087	    68.992
459.03	-2760.530	-4667.819	 3406.629	  26.095	 283.270	277.608	     0.000	    29.467	  4577.412	     0.000	     0.000	     1.000	     4.073	   179.898	   -69.747	    69.645
460.03	-2760.444	-4667.678	 3406.417	  25.842	 252.214	277.699	     0.000	    28.762	  4617.577	     0.000	     0.000	     1.000	     4.127	   179.889	   -70.461	    70.350
461.03	-2760.366	-4667.552	 3406.232	  25.618	 220.663	277.776	     0.000	    28.057	  4658.279	     0.000	     0.000	     1.000	     4.182	   179.878	   -71.241	    71.119
462.03	-2760.298	-4667.440	 3406.074	  25.423	 188.606	277.840	     0.000	    27.352	  4699.532	     0.000	     0.000	     1.000	     4.239	   179.909	   -72.106	    72.015
463.03	-2760.239	-4667.344	 3405.942	  25.258	 156.031	277.892	     0.000	    26.647	  4741.352	     0.000	     0.000	     1.000	     4.298	   179.947	   -73.088	    73.035
464.03	-2760.184	-4667.254	 3405.822	  25.104	 165.338	277.937	     0.000	    26.647	  4741.352	     0.000	     0.000	     0.000	     0.000	   179.861	   -74.063	    73.924
465.03	-2760.124	-4667.156	 3405.696	  24.940	 174.684	277.982	     0.596	    26.647	  4741.352	     0.000	     0.000	     0.000	     0.001	   179.917	   -74.934	    74.851
466.03	-2760.061	-4667.051	 3405.566	  24.767	 184.057	278.027	     0.681	    26.647	  4741.352	     0.000	     0.000	     0.000	     0.001	   179.888	   -75.715	    75.603
467.03	-2759.993	-4666.939	 3405.430	  24.584	 193.460	278.072	     0.775	    26.647	  4741.352	     0.000	     0.000	     0.000	     0.002	   179.899	   -76.420	    76.319
468.03	-2759.921	-4666.820	 3405.289	  24.391	 202.887	278.117	     0.881	    26.647	  4741.352	     0.000	     0.000	     0.000	     0.002	   179.908	   -77.060	    76.968
469.03	-2759.845	-4666.694	 3405.143	  24.189	 212.335	278.163	     0.997	    26.647	  4741.352	     0.000	     0.000	     0.000	     0.002	   179.944	   -77.643	    77.587
470.03	-2759.764	-4666.561	 3404.992	  23.977	 221.798	278.208	     1.127	    26.647	  4741.352	     0.000	     0.000	     0.000	     0.003	   179.949	   -78.176	    78.124
471.03	-2759.680	-4666.421	 3404.836	  23.755	 231.270	278.253	     1.271	    26.647	  4741.352	     0.000	     0.000	     0.000	     0.004	   179.953	   -78.665	    78.618
472.03	-2759.591	-4666.274	 3404.674	  23.524	 240.746	278.298	     1.431	    26.647	  4741.352	     0.000	     0.000	     0.000	     0.005	   179.868	   -79.115	    78.984
473.03	-2759.498	-4666.120	 3404.508	  23.283	 250.221	278.343	     1.608	    26.647	  4741.352	     0.000	     0.000	     0.000	     0.007	   179.960	   -79.531	    79.491
474.03	-2759.401	-4665.958	 3404.336	  23.032	 259.690	278.388	     1.806	    26.647	  4741.352	     0.000	     0.000	     0.000	     0.009	   179.944	   -79.917	    79.861
475.03	-2759.299	-4665.790	 3404.159	  22.772	 269.146	278.434	     2.025	    26.647	  4741.352	     0.000	     0.000	     0.000	     0.012	   179.965	   -80.275	    80.241
476.03	-2759.194	-4665.615	 3403.977	  22.502	 278.583	278.479	     2.268	    26.647	  4741.352	     0.000	     0.000	     0.000	     0.015	   179.984	   -80.609	    80.593
477.03	-2759.084	-4665.433	 3403.790	  22.223	 287.995	278.524	     2.538	    26.647	  4741.352	     0.000	     0.000	     0.000	     0.019	   179.924	   -80.921	    80.845
478.03	-2758.971	-4665.244	 3403.598	  21.934	 297.375	278.569	     2.838	    26.647	  4741.352	     0.000	     0.000	     0.000	     0.024	   179.986	   -81.213	    81.199
479.03	-2758.853	-4665.048	 3403.401	  21.635	 306.716	278.614	     3.171	    26.647	  4741.352	     0.000	     0.000	     0.000	     0.029	   179.960	   -81.487	    81.447
480.03	-2758.731	-4664.846	 3403.199	  21.328	 316.009	278.659	     3.542	    26.647	  4741.352	     0.000	     0.000	     0.000	     0.035	   179.937	   -81.744	    81.681
481.03	-2758.605	-4664.636	 3402.992	  21.010	 325.248	278.705	     3.953	    26.647	  4741.352	     0.000	     0.000	     0.000	     0.042	   179.941	   -81.987	    81.927
482.03	-2758.475	-4664.420	 3402.780	  20.684	 334.422	278.750	     4.411	    26.647	  4741.352	     0.000	     0.000	     0.000	     0.049	   179.944	   -82.215	    82.159
483.03	-2758.341	-4664.196	 3402.563	  20.348	 343.522	278.795	     4.919	    26.647	  4741.352	     0.000	     0.000	     0.000	     0.058	   179.968	   -82.432	    82.400
484.03	-2758.202	-4663.967	 3402.342	  20.003	 352.540	278.840	     5.484	    26.647	  4741.352	     0.000	     0.000	     0.000	     0.067	   179.878	   -82.636	    82.515
485.03	-2758.060	-4663.730	 3402.116	  19.649	 361.465	278.885	     6.096	    26.647	  4741.352	     0.000	     0.000	     0.000	     0.078	   179.923	   -82.831	    82.754
486.03	-2757.914	-4663.487	 3401.884	  19.287	 370.288	278.929	     6.772	    26.647	  4741.352	     0.000	     0.000	     0.000	     0.089	   179.982	   -83.015	    82.997
487.03	-2757.765	-4663.238	 3401.649	  18.915	 378.998	278.974	     7.521	    26.647	  4741.352	     0.000	     0.000	     0.000	     0.102	   179.922	   -83.191	    83.113
488.03	-2757.611	-4662.982	 3401.409	  18.534	 387.584	279.019	     8.350	    26.647	  4741.352	     0.000	     0.000	     0.000	     0.115	   179.992	   -83.358	    83.350
489.03	-2757.454	-4662.720	 3401.164	  18.145	 396.033	279.063	     9.267	    26.647	  4741.352	     0.000	     0.000	     0.000	     0.130	   179.953	   -83.518	    83.471
490.03	-2757.292	-4662.452	 3400.915	  17.748	 404.334	279.108	    10.282	    26.647	  4741.352	     0.000	     0.000	     0.000	     0.147	   179.917	   -83.670	    83.587
491.03	-2757.128	-4662.178	 3400.662	  17.343	 408.193	279.152	    11.192	    26.554	  4746.845	     0.000	     0.000	     0.750	     1.104	   179.890	   -83.817	    83.707
492.03	-2756.964	-4661.904	 3400.411	  16.939	 404.701	279.195	    11.730	    26.346	  4759.215	     0.000	     0.000	     0.895	     1.373	   179.978	   -83.962	    83.941
493.03	-2756.800	-4661.632	 3400.162	  16.538	 400.879	279.237	    12.258	    26.136	  4771.779	     0.000	     0.000	     0.895	     1.381	   179.950	   -84.105	    84.055
494.03	-2756.638	-4661.363	 3399.917	  16.141	 396.976	279.277	    12.794	    25.926	  4784.387	     0.000	     0.000	     0.895	     1.390	   179.930	   -84.246	    84.176
495.03	-2756.478	-4661.095	 3399.675	  15.748	 392.993	279.316	    13.338	    25.715	  4797.041	     0.000	     0.000	     0.895	     1.398	   179.910	   -84.385	    84.294
496.03	-2756.318	-4660.829	 3399.436	  15.359	 388.930	279.354	    13.888	    25.505	  4809.741	     0.000	     0.000	     0.895	     1.407	   179.890	   -84.522	    84.412
497.03	-2756.160	-4660.566	 3399.200	  14.974	 384.789	279.390	    14.442	    25.295	  4822.485	     0.000	     0.000	     0.895	     1.415	   179.987	   -84.657	    84.643
498.03	-2756.004	-4660.306	 3398.968	  14.592	 380.570	279.425	    14.999	    25.084	  4835.276	     0.000	     0.000	     0.895	     1.423	   179.974	   -84.790	    84.763
499.03	-2755.849	-4660.047	 3398.739	  14.215	 376.277	279.459	    15.558	    24.874	  4848.111	     0.000	     0.000	     0.895	     1.431	   179.961	   -84.921	    84.882
500.03	-2755.695	-4659.791	 3398.513	  13.843	 371.910	279.491	    16.116	    24.664	  4860.992	     0.000	     0.000	     0.895	     1.439	   179.949	   -85.050	    84.999
501.03	-2755.543	-4659.538	 3398.290	  13.474	 367.474	279.523	    16.672	    24.453	  4873.919	     0.000	     0.000	     0.895	     1.446	   179.937	   -85.178	    85.114
502.03	-2755.393	-4659.287	 3398.071	  13.110	 362.971	279.553	    17.224	    24.243	  4886.890	     0.000	     0.000	     0.895	     1.453	   179.931	   -85.303	    85.235
503.03	-2755.244	-4659.040	 3397.855	  12.750	 358.404	279.582	    17.770	    24.033	  4899.906	     0.000	     0.000	     0.895	     1.460	   179.926	   -85.428	    85.353
504.03	-2755.097	-4658.794	 3397.643	  12.395	 353.779	279.610	    18.308	    23.822	  4912.967	     0.000	     0.000	     0.895	     1.466	   179.921	   -85.550	    85.471
505.03	-2754.951	-4658.552	 3397.434	  12.045	 349.098	279.637	    18.837	    23.612	  4926.073	     0.000	     0.000	     0.895	     1.471	   179.916	   -85.671	    85.586
506.03	-2754.808	-4658.313	 3397.228	  11.699	 344.367	279.662	    19.354	    23.402	  4939.224	     0.000	     0.000	     0.895	     1.476	   179.911	   -85.790	    85.700
507.03	-2754.666	-4658.076	 3397.026	  11.358	 339.590	279.687	    19.858	    23.191	  4952.419	     0.000	     0.000	     0.895	     1.481	   179.912	   -85.907	    85.819
508.03	-2754.526	-4657.842	 3396.827	  11.021	 334.774	279.711	    20.347	    22.981	  4965.658	     0.000	     0.000	     0.895	     1.485	   179.913	   -86.022	    85.936
509.03	-2754.388	-4657.612	 3396.631	  10.690	 329.927	279.733	    20.656	    22.771	  4978.942	     0.000	     0.000	     0.895	     1.488	   179.915	   -86.136	    86.051
510.03	-2754.251	-4657.384	 3396.439	  10.363	 325.063	279.755	    20.898	    22.560	  4992.269	     0.000	     0.000	     0.895	     1.489	   179.922	   -86.249	    86.170
511.03	-2754.116	-4657.160	 3396.250	  10.041	 320.186	279.776	    21.111	    22.350	  5005.640	     0.000	     0.000	     0.895	     1.491	   179.928	   -86.359	    86.288
512.03	-2753.984	-4656.938	 3396.065	   9.723	 315.301	279.795	    21.295	    22.140	  5019.056	     0.000	     0.000	     0.895	     1.491	   179.935	   -86.468	    86.403
513.03	-2753.853	-4656.720	 3395.883	   9.411	 310.414	279.814	    21.449	    21.929	  5032.516	     0.000	     0.000	     0.895	     1.492	   179.947	   -86.576	    86.523
514.03	-2753.724	-4656.505	 3395.704	   9.103	 305.526	279.832	    21.573	    21.719	  5046.019	     0.000	     0.000	     0.895	     1.492	   179.958	   -86.682	    86.640
515.03	-2753.597	-4656.293	 3395.528	   8.801	 300.643	279.850	    21.668	    21.509	  5059.567	     0.000	     0.000	     0.895	     1.491	   179.969	   -86.786	    86.755
516.03	-2753.472	-4656.084	 3395.356	   8.503	 295.767	279.866	    21.733	    21.298	  5073.159	     0.000	     0.000	     0.895	     1.491	   179.985	   -86.889	    86.873
517.03	-2753.348	-4655.878	 3395.187	   8.210	 290.899	279.881	    21.770	    21.088	  5086.795	     0.000	     0.000	     0.895	     1.490	   179.883	   -86.990	    86.873
518.03	-2753.227	-4655.675	 3395.021	   7.922	 286.044	279.896	    21.777	    20.878	  5100.476	     0.000	     0.000	     0.895	     1.489	   179.901	   -87.088	    86.989
519.03	-2753.107	-4655.476	 3394.859	   7.638	 281.201	279.910	    21.756	    20.667	  5114.200	     0.000	     0.000	     0.895	     1.488	   179.922	   -87.186	    87.108
520.03	-2752.990	-4655.279	 3394.699	   7.360	 276.371	279.924	    21.706	    20.457	  5127.970	     0.000	     0.000	     0.895	     1.487	   179.943	   -87.281	    87.225
521.03	-2752.874	-4655.086	 3394.543	   7.086	 271.554	279.936	    21.628	    20.247	  5141.783	     0.000	     0.000	     0.895	     1.485	   179.968	   -87.376	    87.343
522.03	-2752.760	-4654.896	 3394.390	   6.817	 266.751	279.948	    21.522	    20.036	  5155.642	     0.000	     0.000	     0.895	     1.484	   179.991	   -87.469	    87.460
523.03	-2752.649	-4654.709	 3394.240	   6.553	 261.959	279.960	    21.389	    19.826	  5169.545	     0.000	     0.000	     0.895	     1.483	   179.900	   -87.559	    87.459
524.03	-2752.539	-4654.526	 3394.093	   6.293	 257.177	279.971	    21.228	    19.616	  5183.494	     0.000	     0.000	     0.895	     1.482	   179.929	   -87.648	    87.577
525.03	-2752.431	-4654.345	 3393.949	   6.038	 252.403	279.981	    21.039	    19.405	  5197.488	     0.000	     0.000	     0.895	     1.482	   179.957	   -87.735	    87.693
526.03	-2752.325	-4654.168	 3393.807	   5.788	 247.633	279.990	    20.824	    19.195	  5211.527	     0.000	     0.000	     0.895	     1.482	   179.987	   -87.822	    87.809
527.03	-2752.220	-4653.994	 3393.669	   5.543	 242.865	280.000	    20.581	    18.985	  5225.612	     0.000	     0.000	     0.895	     1.482	   179.903	   -87.906	    87.809
528.03	-2752.118	-4653.823	 3393.534	   5.303	 238.095	280.008	    20.310	    18.774	  5239.743	     0.000	     0.000	     0.895	     1.483	   179.939	   -87.987	    87.927
529.03	-2752.018	-4653.655	 3393.402	   5.067	 233.317	280.016	    20.013	    18.564	  5253.920	     0.000	     0.000	     0.895	     1.484	   179.972	   -88.068	    88.041
530.03	-2751.920	-4653.491	 3393.273	   4.836	 228.527	280.024	    19.688	    18.354	  5268.144	     0.000	     0.000	     0.895	     1.485	   179.893	   -88.148	    88.040
531.03	-2751.823	-4653.330	 3393.147	   4.610	 223.719	280.031	    19.335	    18.143	  5282.415	     0.000	     0.000	     0.895	     1.487	   179.931	   -88.224	    88.155
532.03	-2751.729	-4653.172	 3393.024	   4.389	 218.890	280.037	    18.956	    17.933	  5296.734	     0.000	     0.000	     0.895	     1.491	   179.971	   -88.300	    88.271
533.03	-2751.636	-4653.017	 3392.903	   4.172	 214.020	280.044	    18.547	    17.722	  5311.100	     0.000	     0.000	     0.895	     1.495	   179.896	   -88.375	    88.270
534.03	-2751.546	-4652.866	 3392.786	   3.961	 209.107	280.049	    18.108	    17.512	  5325.514	     0.000	     0.000	     0.895	     1.499	   179.940	   -88.446	    88.385
535.03	-2751.458	-4652.718	 3392.671	   3.754	 204.151	280.055	    17.643	    17.302	  5339.978	     0.000	     0.000	     0.895	     1.504	   179.983	   -88.517	    88.500
536.03	-2751.372	-4652.574	 3392.560	   3.552	 199.152	280.060	    17.150	    17.091	  5354.490	     0.000	     0.000	     0.895	     1.508	   179.914	   -88.586	    88.500
537.03	-2751.287	-4652.433	 3392.451	   3.356	 194.110	280.065	    16.633	    16.881	  5369.053	     0.000	     0.000	     0.895	     1.513	   179.961	   -88.653	    88.614
538.03	-2751.205	-4652.296	 3392.346	   3.164	 189.025	280.069	    16.092	    16.671	  5383.666	     0.000	     0.000	     0.895	     1.518	   179.893	   -88.720	    88.613
539.03	-2751.125	-4652.162	 3392.243	   2.977	 183.895	280.073	    15.530	    16.460	  5398.331	     0.000	     0.000	     0.895	     1.522	   179.947	   -88.783	    88.730
540.03	-2751.048	-4652.032	 3392.144	   2.796	 178.722	280.077	    14.947	    16.250	  5413.048	     0.000	     0.000	     0.895	     1.527	   179.997	   -88.848	    88.844
541.03	-2750.972	-4651.905	 3392.047	   2.620	 173.503	280.080	    14.346	    16.040	  5427.817	     0.000	     0.000	     0.895	     1.531	   179.937	   -88.906	    88.844
542.03	-2750.899	-4651.782	 3391.954	   2.449	 168.240	280.083	    13.728	    15.829	  5442.640	     0.000	     0.000	     0.895	     1.536	   179.991	   -88.968	    88.959
543.03	-2750.828	-4651.663	 3391.863	   2.283	 162.930	280.086	    13.096	    15.619	  5457.517	     0.000	     0.000	     0.895	     1.541	   179.935	   -89.024	    88.959
544.03	-2750.759	-4651.547	 3391.776	   2.123	 157.574	280.089	    12.452	    15.409	  5472.450	     0.000	     0.000	     0.895	     1.546	   179.992	   -89.083	    89.074
545.03	-2750.692	-4651.436	 3391.691	   1.968	 152.171	280.091	    11.798	    15.198	  5487.439	     0.000	     0.000	     0.895	     1.551	   179.938	   -89.135	    89.074
546.03	-2750.628	-4651.328	 3391.610	   1.818	 146.720	280.093	    11.136	    14.988	  5502.486	     0.000	     0.000	     0.895	     1.556	   179.997	   -89.192	    89.189
547.03	-2750.566	-4651.224	 3391.532	   1.674	 141.219	280.095	    10.469	    14.778	  5517.591	     0.000	     0.000	     0.895	     1.561	   179.948	   -89.240	    89.188
548.03	-2750.506	-4651.124	 3391.457	   1.535	 135.669	280.097	     9.799	    14.567	  5532.756	     0.000	     0.000	     0.895	     1.566	   179.894	   -89.293	    89.187
549.03	-2750.449	-4651.028	 3391.384	   1.402	 130.067	280.098	     9.129	    14.357	  5547.982	     0.000	     0.000	     0.895	     1.571	   179.963	   -89.340	    89.303
550.03	-2750.394	-4650.936	 3391.316	   1.275	 124.413	280.100	     8.461	    14.147	  5563.270	     0.000	     0.000	     0.895	     1.577	   179.915	   -89.388	    89.302
551.03	-2750.342	-4650.848	 3391.250	   1.153	 118.705	280.101	     7.798	    13.936	  5578.622	     0.000	     0.000	     0.895	     1.582	   179.983	   -89.435	    89.418
552.03	-2750.292	-4650.764	 3391.187	   1.037	 112.942	280.102	     7.143	    13.726	  5594.038	     0.000	     0.000	     0.895	     1.588	   179.941	   -89.476	    89.417
553.03	-2750.245	-4650.684	 3391.128	   0.927	 107.162	280.103	     6.503	    13.516	  5609.478	     0.000	     0.000	     0.891	     1.587	   179.893	   -89.523	    89.416
554.03	-2750.200	-4650.608	 3391.072	   0.823	 101.350	280.104	     5.879	    13.307	  5624.962	     0.000	     0.000	     0.891	     1.593	   179.971	   -89.562	    89.532
555.03	-2750.157	-4650.537	 3391.019	   0.724	  95.479	280.104	     5.270	    13.097	  5640.515	     0.000	     0.000	     0.891	     1.599	   179.931	   -89.600	    89.531
556.03	-2750.117	-4650.470	 3390.969	   0.632	  89.547	280.105	     4.680	    12.888	  5656.139	     0.000	     0.000	     0.891	     1.606	   179.886	   -89.645	    89.530
557.03	-2750.080	-4650.407	 3390.923	   0.545	  83.551	280.105	     4.112	    12.678	  5671.834	     0.000	     0.000	     0.891	     1.612	   179.970	   -89.676	    89.646
558.03	-2750.045	-4650.348	 3390.879	   0.464	  77.416	280.106	     3.561	    12.469	  5687.604	     0.000	     0.000	     0.891	     1.638	   179.935	   -89.710	    89.645
559.03	-2750.013	-4650.294	 3390.839	   0.390	  71.122	280.106	     3.030	    12.260	  5703.449	     0.000	     0.000	     0.891	     1.642	   179.894	   -89.750	    89.644
560.03	-2749.983	-4650.245	 3390.803	   0.322	  64.784	280.106	     2.533	    12.050	  5719.372	     0.000	     0.000	     0.891	     1.647	   179.981	   -89.777	    89.758
561.03	-2749.957	-4650.200	 3390.770	   0.260	  58.396	280.107	     2.073	    11.841	  5735.375	     0.000	     0.000	     0.891	     1.652	   179.953	   -89.803	    89.757
562.03	-2749.933	-4650.160	 3390.740	   0.205	  51.957	280.107	     1.652	    11.631	  5751.460	     0.000	     0.000	     0.891	     1.657	   179.919	   -89.836	    89.755
563.03	-2749.912	-4650.124	 3390.714	   0.156	  45.459	280.107	     1.273	    11.422	  5767.628	     0.000	     0.000	     0.891	     1.664	   179.996	   -89.873	    89.870
564.03	-2749.894	-4650.093	 3390.692	   0.113	  38.900	280.107	     0.939	    11.212	  5783.883	     0.000	     0.000	     0.891	     1.670	   179.984	   -89.883	    89.868
565.03	-2749.878	-4650.067	 3390.673	   0.078	  32.273	280.107	     0.651	    11.003	  5800.226	     0.000	     0.000	     0.891	     1.677	   179.966	   -89.898	    89.867
566.03	-2749.866	-4650.046	 3390.657	   0.049	  25.574	280.107	     0.412	    10.793	  5816.659	     0.000	     0.000	     0.891	     1.685	   179.937	   -89.920	    89.866
567.03	-2749.856	-4650.030	 3390.645	   0.026	  18.796	280.107	     0.225	    10.584	  5833.186	     0.000	     0.000	     0.891	     1.693	   179.885	   -89.946	    89.864
568.03	-2749.849	-4650.018	 3390.637	   0.011	  11.933	280.107	     0.093	    10.375	  5849.809	     0.000	     0.000	     0.891	     1.702	   179.965	   -89.925	    89.948
569.03	-2749.846	-4650.012	 3390.633	   0.002	   4.362	280.107	     0.014	    10.156	  5867.249	     0.000	     0.000	     1.000	     1.921	   179.993	   -89.849	    89.843
570.03	-2749.846	-4650.012	 3390.632	   0.002	   4.762	280.107	     0.011	     9.921	  5886.133	     0.000	     0.000	     1.000	     1.934	    -0.762	    84.041	    83.279
571.03	-2749.849	-4650.020	 3390.636	   0.011	  14.173	280.109	     0.116	     9.686	  5905.148	     0.000	     0.000	     1.000	     1.947	    10.202	    74.506	    81.073
572.03	-2749.853	-4650.036	 3390.644	   0.029	  23.241	280.110	     0.320	     9.451	  5924.299	     0.000	     0.000	     1.000	     1.959	   -17.052	    77.907	    76.863
573.03	-2749.860	-4650.057	 3390.661	   0.056	  31.912	280.107	     0.608	     9.216	  5943.588	     0.000	     0.000	     1.000	     1.972	   -20.324	    77.365	    64.677
574.03	-2749.871	-4650.077	 3390.688	   0.090	  40.651	280.097	     0.988	     8.981	  5963.020	     0.000	     0.000	     1.000	     1.984	   -22.340	    68.532	    51.556
575.03	-2749.889	-4650.094	 3390.726	   0.130	  49.959	280.077	     1.491	     8.746	  5982.598	     0.000	     0.000	     1.000	     1.997	   -24.137	    56.950	    38.628
576.03	-2749.914	-4650.102	 3390.774	   0.172	  60.201	280.047	     2.160	     8.511	  6002.326	     0.000	     0.000	     1.000	     2.008	   -26.400	    45.079	    26.407
577.03	-2749.949	-4650.098	 3390.828	   0.213	  71.511	280.008	     3.039	     8.276	  6022.205	     0.000	     0.000	     1.000	     2.019	   -29.527	    33.830	    15.335
578.03	-2749.996	-4650.078	 3390.886	   0.250	  83.782	279.963	     4.163	     8.041	  6042.237	     0.000	     0.000	     1.000	     2.030	   -33.630	    23.606	     5.794
579.03	-2750.056	-4650.041	 3390.943	   0.278	  96.718	279.914	     5.541	     7.806	  6062.423	     0.000	     0.000	     1.000	     2.042	   -38.615	    14.537	    -1.916
580.03	-2750.128	-4649.987	 3390.992	   0.297	 109.909	279.867	     7.153	     7.571	  6082.763	     0.000	     0.000	     1.000	     2.055	   -44.310	     6.606	    -7.578
581.03	-2750.213	-4649.918	 3391.029	   0.302	 122.902	279.826	     8.953	     7.336	  6103.256	     0.000	     0.000	     1.000	     2.071	   -50.554	    -0.276	   -11.048
582.03	-2750.309	-4649.835	 3391.050	   0.295	 135.243	279.796	    10.867	     7.101	  6123.901	     0.000	     0.000	     1.000	     2.090	   -57.223	    -6.216	   -12.297
583.03	-2750.415	-4649.742	 3391.051	   0.273	 146.510	279.782	    12.799	     6.866	  6144.697	     0.000	     0.000	     1.000	     2.111	   -64.233	   -11.314	   -11.435
584.03	-2750.527	-4649.643	 3391.028	   0.237	 156.318	279.785	    14.641	     6.631	  6165.643	     0.000	     0.000	     1.000	     2.134	    71.533	   -15.658	    -8.721
585.03	-2750.642	-4649.542	 3390.982	   0.188	 164.332	279.809	    16.280	     6.396	  6186.738	     0.000	     0.000	     1.000	     2.156	    79.094	   -19.326	    -4.512
586.03	-2750.757	-4649.442	 3390.912	   0.128	 170.266	279.854	    17.603	     6.161	  6207.981	     0.000	     0.000	     1.000	     2.175	    86.907	   -22.388	     0.790
587.03	-2750.868	-4649.349	 3390.820	   0.059	 173.809	279.919	    18.495	     5.926	  6229.372	     0.000	     0.000	     1.000	     2.192	    94.979	   -24.917	     6.789
