#Time	x(km)		y(km)		z(km)		alt(km)	    relVel		dwnrng(km)	 Q(kPa)	   Fuel(tons) dV_tot	  dV_grav	  dv_drag		 throttle	accel (g's)	      aoa
 -4.05	-2672.329	-4516.862	 3624.534	   0.000	   0.000	0.000	     0.000	   395.700	     0.000	     0.000	     0.000	     0.000	     1.000	    90.000	    -0.000	    34.630
 -3.05	-2672.329	-4516.862	 3624.534	   0.000	   0.000	0.000	     0.000	   395.700	     0.000	     0.000	     0.000	     0.000	     1.000	    90.000	    -0.000	    34.630
 -2.05	-2672.329	-4516.862	 3624.534	   0.000	   0.000	0.000	     0.000	   395.700	     0.000	     0.000	     0.000	     0.000	     1.000	    90.000	    -0.000	    34.630
 -1.05	-2672.329	-4516.862	 3624.534	   0.000	   0.000	0.000	     0.000	   394.947	     4.011	     0.000	     0.000	     0.712	     1.000	    90.000	    -0.000	    34.630
 -0.05	-2672.329	-4516.862	 3624.534	   0.000	   0.000	0.000	     0.000	   392.933	    14.754	     0.000	     0.000	     1.000	     1.000	    90.000	    -0.000	    34.630
  0.00	-2672.329	-4516.862	 3624.534	   0.000	   0.000	0.000	     0.000	   392.828	    15.320	     0.000	     0.000	     1.000	     1.000	    90.000	    -0.000	    34.630
  1.03	-2672.329	-4516.863	 3624.534	   0.001	   1.600	0.000	     0.001	   390.660	    26.938	     0.000	     0.000	     1.000	     1.159	     0.565	    89.435	    89.997
  2.03	-2672.330	-4516.865	 3624.535	   0.003	   3.210	0.000	     0.006	   388.545	    38.321	     0.000	     0.000	     1.000	     1.164	     0.564	    89.436	    89.993
  3.03	-2672.332	-4516.867	 3624.538	   0.007	   4.866	0.000	     0.014	   386.430	    49.751	     0.000	     0.000	     1.000	     1.169	     0.559	    89.441	    89.990
  4.03	-2672.334	-4516.871	 3624.541	   0.013	   6.571	0.000	     0.026	   384.315	    61.229	     0.000	     0.000	     1.000	     1.174	     0.552	    89.446	    89.986
  5.02	-2672.338	-4516.877	 3624.545	   0.020	   8.325	0.000	     0.042	   382.200	    72.756	     0.000	     0.000	     1.000	     1.179	     0.546	    89.452	    89.983
  6.02	-2672.341	-4516.883	 3624.550	   0.029	  10.128	0.000	     0.062	   380.086	    84.333	     0.000	     0.000	     1.000	     1.184	     0.540	    89.457	    89.979
  7.02	-2672.346	-4516.891	 3624.556	   0.040	  11.981	0.000	     0.087	   377.971	    95.959	     0.000	     0.000	     1.000	     1.189	     0.534	    89.462	    89.976
  8.02	-2672.352	-4516.900	 3624.563	   0.053	  13.888	0.001	     0.117	   375.856	   107.637	     0.000	     0.000	     1.000	     1.194	     0.121	    88.079	    88.199
  9.03	-2672.358	-4516.911	 3624.571	   0.068	  15.853	0.001	     0.152	   373.741	   119.366	     0.000	     0.000	     1.000	     1.200	     1.280	    86.919	    88.199
 10.03	-2672.366	-4516.923	 3624.580	   0.085	  17.875	0.002	     0.193	   371.626	   131.147	     0.000	     0.000	     1.000	     1.205	     2.176	    86.022	    88.198
 11.03	-2672.374	-4516.937	 3624.589	   0.104	  19.953	0.004	     0.241	   369.511	   142.981	     0.000	     0.000	     1.000	     1.211	     2.882	    85.316	    88.198
 12.03	-2672.384	-4516.953	 3624.600	   0.125	  22.087	0.006	     0.294	   367.396	   154.869	     0.000	     0.000	     1.000	     1.216	     3.446	    84.751	    88.197
 13.03	-2672.394	-4516.970	 3624.611	   0.148	  24.277	0.008	     0.355	   365.281	   166.811	     0.000	     0.000	     1.000	     1.222	     3.902	    84.295	    88.196
 14.03	-2672.406	-4516.989	 3624.623	   0.173	  26.524	0.010	     0.423	   363.166	   178.808	     0.000	     0.000	     1.000	     1.227	     4.273	    83.923	    88.196
 15.03	-2672.419	-4517.009	 3624.636	   0.200	  28.827	0.013	     0.499	   361.052	   190.862	     0.000	     0.000	     1.000	     1.233	     4.577	    83.618	    88.195
 16.03	-2672.433	-4517.032	 3624.651	   0.230	  31.188	0.017	     0.582	   358.937	   202.972	     0.000	     0.000	     1.000	     1.239	     4.828	    83.367	    88.195
 17.03	-2672.448	-4517.056	 3624.666	   0.262	  33.606	0.021	     0.674	   356.822	   215.140	     0.000	     0.000	     1.000	     1.245	     5.035	    83.159	    88.194
 18.03	-2672.464	-4517.082	 3624.682	   0.297	  36.082	0.025	     0.775	   354.707	   227.367	     0.000	     0.000	     1.000	     1.251	     5.205	    82.988	    88.193
 19.03	-2672.482	-4517.110	 3624.699	   0.334	  38.618	0.029	     0.885	   352.592	   239.652	     0.000	     0.000	     1.000	     1.257	     5.346	    82.847	    88.193
 20.03	-2672.501	-4517.140	 3624.718	   0.373	  41.214	0.034	     1.004	   350.477	   251.998	     0.000	     0.000	     1.000	     1.263	     5.461	    82.731	    88.192
 21.03	-2672.521	-4517.172	 3624.737	   0.415	  43.871	0.040	     1.134	   348.362	   264.405	     0.000	     0.000	     1.000	     1.269	     5.556	    82.636	    88.191
 22.03	-2672.542	-4517.206	 3624.758	   0.460	  46.590	0.046	     1.273	   346.247	   276.875	     0.000	     0.000	     1.000	     1.276	     5.632	    82.559	    88.191
 23.03	-2672.565	-4517.242	 3624.780	   0.508	  49.371	0.052	     1.423	   344.132	   289.407	     0.000	     0.000	     1.000	     1.282	     5.692	    82.498	    88.190
 24.03	-2672.589	-4517.280	 3624.803	   0.558	  52.215	0.059	     1.585	   342.018	   302.003	     0.000	     0.000	     1.000	     1.289	     5.739	    82.451	    88.190
 25.03	-2672.614	-4517.320	 3624.828	   0.611	  55.124	0.066	     1.757	   339.903	   314.663	     0.000	     0.000	     1.000	     1.295	     5.775	    82.415	    88.189
 26.03	-2672.641	-4517.363	 3624.854	   0.667	  58.097	0.073	     1.942	   337.788	   327.390	     0.000	     0.000	     1.000	     1.302	     5.800	    82.388	    88.188
 27.03	-2672.669	-4517.408	 3624.881	   0.726	  61.138	0.081	     2.138	   335.673	   340.183	     0.000	     0.000	     1.000	     1.309	     5.817	    82.371	    88.188
 28.03	-2672.699	-4517.455	 3624.909	   0.788	  64.245	0.089	     2.347	   333.558	   353.045	     0.000	     0.000	     1.000	     1.316	     5.826	    82.361	    88.187
 29.03	-2672.730	-4517.504	 3624.939	   0.853	  67.420	0.098	     2.569	   331.443	   365.975	     0.000	     0.000	     1.000	     1.323	     5.828	    82.358	    88.186
 30.03	-2672.763	-4517.556	 3624.971	   0.922	  70.665	0.107	     2.803	   329.328	   378.975	     0.000	     0.000	     1.000	     1.330	     5.825	    82.361	    88.186
 31.03	-2672.798	-4517.610	 3625.004	   0.993	  73.979	0.117	     3.051	   327.213	   392.045	     0.000	     0.000	     1.000	     1.337	     5.816	    82.369	    88.185
 32.03	-2672.834	-4517.667	 3625.038	   1.068	  77.365	0.127	     3.313	   325.098	   405.188	     0.000	     0.000	     1.000	     1.344	     5.803	    82.382	    88.184
 33.03	-2672.871	-4517.727	 3625.074	   1.146	  80.823	0.137	     3.588	   322.984	   418.404	     0.000	     0.000	     1.000	     1.352	     5.786	    82.398	    88.184
 34.03	-2672.910	-4517.789	 3625.112	   1.228	  84.355	0.148	     3.878	   320.869	   431.694	     0.000	     0.000	     1.000	     1.359	     5.765	    82.418	    88.183
 35.03	-2672.951	-4517.853	 3625.151	   1.313	  87.960	0.160	     4.181	   318.754	   445.059	     0.000	     0.000	     1.000	     1.367	     5.741	    82.442	    88.182
 36.03	-2672.994	-4517.921	 3625.192	   1.402	  91.642	0.171	     4.499	   316.639	   458.500	     0.000	     0.000	     1.000	     1.375	     5.714	    82.468	    88.182
 37.03	-2673.038	-4517.991	 3625.235	   1.495	  95.400	0.184	     4.831	   314.524	   472.020	     0.000	     0.000	     1.000	     1.383	     5.685	    82.497	    88.181
 38.02	-2673.085	-4518.064	 3625.280	   1.591	  99.235	0.196	     5.178	   312.409	   485.617	     0.000	     0.000	     1.000	     1.391	     5.654	    82.527	    88.180
 39.02	-2673.133	-4518.139	 3625.326	   1.692	 103.150	0.209	     5.539	   310.294	   499.295	     0.000	     0.000	     1.000	     1.399	     5.620	    82.560	    88.180
 40.02	-2673.183	-4518.218	 3625.374	   1.796	 107.145	0.223	     5.915	   308.179	   513.054	     0.000	     0.000	     1.000	     1.407	     5.607	    82.594	    88.200
 41.02	-2673.235	-4518.300	 3625.425	   1.904	 111.220	0.237	     6.305	   306.064	   526.895	     0.000	     0.000	     1.000	     1.415	     5.568	    82.633	    88.200
 42.02	-2673.288	-4518.385	 3625.477	   2.016	 115.378	0.251	     6.710	   303.950	   540.819	     0.000	     0.000	     1.000	     1.424	     5.528	    82.673	    88.199
 43.02	-2673.344	-4518.473	 3625.531	   2.133	 119.619	0.266	     7.129	   301.835	   554.828	     0.000	     0.000	     1.000	     1.432	     5.486	    82.714	    88.199
 44.02	-2673.402	-4518.564	 3625.587	   2.253	 123.945	0.282	     7.561	   299.720	   568.923	     0.000	     0.000	     1.000	     1.441	     5.444	    82.756	    88.198
 45.02	-2673.462	-4518.658	 3625.645	   2.378	 128.357	0.297	     8.007	   297.605	   583.105	     0.000	     0.000	     1.000	     1.450	     5.400	    82.798	    88.198
 46.02	-2673.524	-4518.756	 3625.706	   2.508	 132.857	0.314	     8.467	   295.490	   597.376	     0.000	     0.000	     1.000	     1.459	     5.357	    82.841	    88.197
 47.02	-2673.587	-4518.857	 3625.768	   2.642	 137.445	0.331	     8.939	   293.375	   611.736	     0.000	     0.000	     1.000	     1.468	     5.312	    82.885	    88.197
 48.02	-2673.654	-4518.962	 3625.833	   2.780	 142.122	0.348	     9.424	   291.260	   626.187	     0.000	     0.000	     1.000	     1.477	     5.268	    82.929	    88.196
 49.02	-2673.722	-4519.070	 3625.901	   2.924	 146.891	0.365	     9.920	   289.145	   640.730	     0.000	     0.000	     1.000	     1.486	     5.222	    82.974	    88.196
 50.02	-2673.792	-4519.181	 3625.970	   3.072	 151.752	0.384	    10.427	   287.030	   655.367	     0.000	     0.000	     1.000	     1.496	     5.177	    83.019	    88.195
 51.02	-2673.865	-4519.297	 3626.042	   3.225	 156.706	0.402	    10.945	   284.916	   670.099	     0.000	     0.000	     1.000	     1.505	     5.131	    83.064	    88.195
 52.02	-2673.940	-4519.416	 3626.116	   3.383	 161.755	0.421	    11.473	   282.801	   684.927	     0.000	     0.000	     1.000	     1.515	     5.086	    83.109	    88.194
 53.02	-2674.018	-4519.538	 3626.193	   3.546	 166.901	0.441	    12.009	   280.686	   699.852	     0.000	     0.000	     1.000	     1.525	     5.040	    83.154	    88.194
 54.02	-2674.098	-4519.665	 3626.273	   3.714	 172.144	0.461	    12.553	   278.571	   714.876	     0.000	     0.000	     1.000	     1.535	     4.993	    83.200	    88.193
 55.02	-2674.180	-4519.795	 3626.355	   3.887	 177.485	0.482	    13.103	   276.456	   730.000	     0.000	     0.000	     1.000	     1.545	     4.947	    83.245	    88.193
 56.02	-2674.265	-4519.930	 3626.439	   4.066	 182.981	0.503	    13.667	   274.341	   745.226	     0.000	     0.000	     1.000	     1.555	     0.130	    82.953	    83.083
 57.02	-2674.353	-4520.069	 3626.525	   4.250	 188.591	0.527	    14.237	   272.226	   760.554	     0.000	     0.000	     1.000	     1.566	     0.114	    82.574	    82.688
 58.02	-2674.444	-4520.212	 3626.612	   4.440	 194.313	0.552	    14.812	   270.111	   775.986	     0.000	     0.000	     1.000	     1.576	     0.019	    82.187	    82.206
 59.02	-2674.539	-4520.361	 3626.701	   4.635	 200.148	0.580	    15.391	   267.996	   791.524	     0.000	     0.000	     1.000	     1.587	     0.060	    81.791	    81.851
 60.02	-2674.637	-4520.514	 3626.791	   4.836	 206.098	0.609	    15.971	   265.882	   807.168	     0.000	     0.000	     1.000	     1.598	     0.101	    81.389	    81.490
 61.02	-2674.739	-4520.672	 3626.883	   5.042	 212.165	0.641	    16.552	   263.767	   822.920	     0.000	     0.000	     1.000	     1.609	     0.020	    80.979	    81.000
 62.02	-2674.844	-4520.835	 3626.975	   5.255	 218.352	0.676	    17.131	   261.652	   838.781	     0.000	     0.000	     1.000	     1.620	     0.063	    80.563	    80.626
 63.02	-2674.953	-4521.003	 3627.070	   5.473	 224.658	0.713	    17.708	   259.537	   854.753	     0.000	     0.000	     1.000	     1.630	     0.106	    80.140	    80.246
 64.02	-2675.066	-4521.176	 3627.165	   5.697	 231.082	0.753	    18.279	   257.422	   870.837	     0.000	     0.000	     1.000	     1.641	     0.021	    79.712	    79.733
 65.02	-2675.183	-4521.355	 3627.262	   5.927	 237.623	0.795	    18.843	   255.307	   887.034	     0.000	     0.000	     1.000	     1.651	     0.066	    79.277	    79.343
 66.02	-2675.303	-4521.539	 3627.359	   6.164	 244.282	0.841	    19.397	   253.192	   903.346	     0.000	     0.000	     1.000	     1.662	     0.110	    78.837	    78.948
 67.02	-2675.428	-4521.728	 3627.458	   6.406	 251.058	0.890	    19.939	   251.077	   919.773	     0.000	     0.000	     1.000	     1.672	     0.022	    78.393	    78.415
 68.02	-2675.557	-4521.923	 3627.557	   6.655	 257.952	0.942	    20.467	   248.963	   936.317	     0.000	     0.000	     1.000	     1.683	     0.068	    77.943	    78.011
 69.02	-2675.691	-4522.124	 3627.658	   6.910	 264.962	0.998	    20.978	   246.848	   952.980	     0.000	     0.000	     1.000	     1.693	     0.114	    77.489	    77.603
 70.02	-2675.829	-4522.331	 3627.759	   7.172	 272.089	1.057	    21.471	   244.733	   969.762	     0.000	     0.000	     1.000	     1.703	     0.046	    77.031	    77.077
 71.02	-2675.971	-4522.544	 3627.861	   7.440	 279.334	1.120	    21.942	   242.618	   986.665	     0.000	     0.000	     1.000	     1.713	     0.046	    76.569	    76.615
 72.02	-2676.118	-4522.763	 3627.963	   7.715	 286.696	1.187	    22.389	   240.503	  1003.691	     0.000	     0.000	     1.000	     1.723	     0.047	    76.102	    76.149
 73.02	-2676.270	-4522.988	 3628.066	   7.997	 294.177	1.257	    22.810	   238.388	  1020.839	     0.000	     0.000	     1.000	     1.733	     0.047	    75.633	    75.680
 74.02	-2676.426	-4523.219	 3628.170	   8.285	 301.776	1.332	    23.203	   236.273	  1038.112	     0.000	     0.000	     1.000	     1.743	     0.047	    75.161	    75.208
 75.02	-2676.588	-4523.456	 3628.274	   8.580	 309.496	1.412	    23.566	   234.158	  1055.511	     0.000	     0.000	     1.000	     1.753	     0.048	    74.686	    74.734
 76.02	-2676.754	-4523.700	 3628.378	   8.881	 317.337	1.496	    23.897	   232.043	  1073.036	     0.000	     0.000	     1.000	     1.763	     0.048	    74.209	    74.257
 77.02	-2676.926	-4523.951	 3628.482	   9.190	 325.301	1.584	    24.193	   229.929	  1090.690	     0.000	     0.000	     1.000	     1.773	     0.048	    73.730	    73.778
 78.02	-2677.103	-4524.208	 3628.586	   9.505	 333.391	1.678	    24.453	   227.814	  1108.473	     0.000	     0.000	     1.000	     1.784	     0.048	    73.248	    73.297
 79.02	-2677.286	-4524.472	 3628.690	   9.828	 341.609	1.776	    24.675	   225.699	  1126.387	     0.000	     0.000	     1.000	     1.794	     0.048	    72.766	    72.814
 80.02	-2677.473	-4524.742	 3628.794	  10.158	 349.958	1.880	    24.858	   223.584	  1144.432	     0.000	     0.000	     1.000	     1.805	     0.048	    72.281	    72.330
 81.02	-2677.667	-4525.020	 3628.898	  10.494	 358.441	1.989	    25.000	   221.469	  1162.610	     0.000	     0.000	     1.000	     1.817	     0.049	    71.796	    71.845
 82.02	-2677.866	-4525.305	 3629.002	  10.838	 367.061	2.104	    25.100	   219.354	  1180.923	     0.000	     0.000	     1.000	     1.828	     0.049	    71.310	    71.359
 83.02	-2678.071	-4525.597	 3629.104	  11.189	 375.825	2.224	    25.015	   217.239	  1199.370	     0.000	     0.000	     1.000	     1.840	     0.049	    70.823	    70.872
 84.02	-2678.282	-4525.896	 3629.207	  11.548	 384.738	2.350	    24.783	   215.124	  1217.954	     0.000	     0.000	     1.000	     1.853	     0.049	    70.337	    70.385
 85.02	-2678.499	-4526.202	 3629.308	  11.913	 393.807	2.483	    24.518	   213.009	  1236.675	     0.000	     0.000	     1.000	     1.866	     0.049	    69.849	    69.898
 86.02	-2678.722	-4526.516	 3629.409	  12.287	 403.036	2.621	    24.221	   210.895	  1255.534	     0.000	     0.000	     1.000	     1.879	     0.049	    69.362	    69.411
 87.02	-2678.952	-4526.838	 3629.509	  12.667	 412.428	2.766	    23.893	   208.780	  1274.532	     0.000	     0.000	     1.000	     1.893	     0.049	    68.876	    68.925
 88.02	-2679.188	-4527.167	 3629.608	  13.056	 421.990	2.918	    23.537	   206.665	  1293.670	     0.000	     0.000	     1.000	     1.907	     0.049	    68.390	    68.439
 89.02	-2679.430	-4527.504	 3629.706	  13.451	 431.725	3.076	    23.152	   204.550	  1312.949	     0.000	     0.000	     1.000	     1.922	     0.049	    67.905	    67.953
 90.02	-2679.679	-4527.849	 3629.802	  13.855	 441.638	3.242	    22.741	   202.435	  1332.370	     0.000	     0.000	     1.000	     1.937	     0.048	    67.421	    67.469
 91.02	-2679.935	-4528.202	 3629.897	  14.267	 451.733	3.415	    22.306	   200.320	  1351.935	     0.000	     0.000	     1.000	     1.953	     0.048	    66.938	    66.986
 92.02	-2680.198	-4528.564	 3629.990	  14.686	 462.016	3.595	    21.848	   198.205	  1371.643	     0.000	     0.000	     1.000	     1.968	     0.048	    66.456	    66.505
 93.02	-2680.468	-4528.934	 3630.082	  15.113	 472.490	3.783	    21.369	   196.090	  1391.498	     0.000	     0.000	     1.000	     1.985	     0.048	    65.977	    66.025
 94.02	-2680.746	-4529.312	 3630.172	  15.548	 483.159	3.979	    20.870	   193.975	  1411.499	     0.000	     0.000	     1.000	     2.001	     0.048	    65.499	    65.547
 95.02	-2681.030	-4529.699	 3630.260	  15.992	 494.026	4.183	    20.354	   191.861	  1431.647	     0.000	     0.000	     1.000	     2.018	     0.048	    65.023	    65.070
 96.02	-2681.323	-4530.094	 3630.347	  16.444	 505.097	4.395	    19.821	   189.746	  1451.945	     0.000	     0.000	     1.000	     2.035	     0.047	    64.549	    64.597
 97.02	-2681.623	-4530.498	 3630.431	  16.903	 516.373	4.616	    19.274	   187.631	  1472.394	     0.000	     0.000	     1.000	     2.053	     0.047	    64.078	    64.125
 98.02	-2681.930	-4530.912	 3630.512	  17.372	 527.858	4.845	    18.715	   185.516	  1492.994	     0.000	     0.000	     1.000	     2.071	     0.047	    63.609	    63.656
 99.02	-2682.246	-4531.334	 3630.592	  17.849	 539.554	5.084	    18.145	   183.401	  1513.748	     0.000	     0.000	     1.000	     2.088	     0.047	    63.143	    63.190
100.02	-2682.570	-4531.766	 3630.668	  18.334	 551.465	5.332	    17.565	   181.286	  1534.656	     0.000	     0.000	     1.000	     2.107	     0.046	    62.680	    62.727
101.02	-2682.902	-4532.208	 3630.743	  18.828	 563.592	5.589	    16.978	   179.171	  1555.721	     0.000	     0.000	     1.000	     2.125	     0.046	    62.220	    62.266
102.02	-2683.242	-4532.658	 3630.814	  19.331	 575.936	5.855	    16.386	   177.056	  1576.943	     0.000	     0.000	     1.000	     2.143	     0.023	    61.763	    61.786
103.02	-2683.591	-4533.119	 3630.882	  19.842	 588.501	6.132	    15.790	   174.941	  1598.325	     0.000	     0.000	     1.000	     2.162	     0.068	    61.310	    61.378
104.02	-2683.949	-4533.589	 3630.947	  20.362	 601.288	6.419	    15.151	   172.827	  1619.867	     0.000	     0.000	     1.000	     2.181	     0.113	    60.860	    60.973
105.02	-2684.316	-4534.070	 3631.009	  20.892	 614.298	6.716	    14.493	   170.712	  1641.573	     0.000	     0.000	     1.000	     2.200	     0.022	    60.414	    60.436
106.02	-2684.691	-4534.560	 3631.068	  21.430	 627.534	7.023	    13.841	   168.597	  1663.443	     0.000	     0.000	     1.000	     2.219	     0.067	    59.971	    60.037
107.02	-2685.076	-4535.061	 3631.123	  21.978	 640.996	7.341	    13.196	   166.482	  1685.480	     0.000	     0.000	     1.000	     2.238	     0.110	    59.532	    59.642
108.02	-2685.470	-4535.572	 3631.175	  22.534	 654.685	7.671	    12.560	   164.367	  1707.684	     0.000	     0.000	     1.000	     2.257	     0.022	    59.096	    59.118
109.02	-2685.874	-4536.094	 3631.223	  23.100	 668.602	8.012	    11.934	   162.252	  1730.060	     0.000	     0.000	     1.000	     2.277	     0.065	    58.665	    58.730
110.02	-2686.287	-4536.626	 3631.266	  23.676	 682.749	8.364	    11.320	   160.137	  1752.607	     0.000	     0.000	     1.000	     2.296	     0.107	    58.237	    58.344
111.02	-2686.710	-4537.169	 3631.306	  24.261	 697.126	8.728	    10.718	   158.022	  1775.329	     0.000	     0.000	     1.000	     2.316	     0.021	    57.813	    57.834
112.02	-2687.143	-4537.723	 3631.341	  24.855	 711.734	9.103	    10.132	   155.907	  1798.228	     0.000	     0.000	     1.000	     2.335	     0.063	    57.393	    57.457
113.02	-2687.586	-4538.288	 3631.372	  25.459	 726.689	9.492	     0.000	   153.793	  1821.347	     0.000	     0.000	     1.000	     2.370	     0.104	    56.978	    57.082
114.02	-2688.040	-4538.865	 3631.399	  26.073	 741.900	9.892	     0.000	   151.678	  1844.654	     0.000	     0.000	     1.000	     2.388	     0.021	    56.567	    56.587
115.02	-2688.504	-4539.452	 3631.420	  26.697	 757.331	10.306	     0.000	   149.563	  1868.141	     0.000	     0.000	     1.000	     2.406	     0.061	    56.159	    56.221
116.02	-2688.978	-4540.052	 3631.437	  27.330	 772.984	10.732	     0.000	   147.448	  1891.810	     0.000	     0.000	     1.000	     2.425	     0.101	    55.756	    55.857
117.02	-2689.464	-4540.663	 3631.449	  27.974	 788.862	11.172	     0.000	   145.333	  1915.664	     0.000	     0.000	     1.000	     2.444	     0.020	    55.358	    55.378
118.02	-2689.960	-4541.286	 3631.455	  28.628	 804.969	11.625	     0.000	   143.218	  1939.707	     0.000	     0.000	     1.000	     2.464	     0.059	    54.963	    55.023
119.02	-2690.467	-4541.921	 3631.457	  29.291	 821.306	12.092	     0.000	   141.103	  1963.940	     0.000	     0.000	     1.000	     2.483	     0.098	    54.573	    54.671
120.02	-2690.986	-4542.568	 3631.452	  29.965	 837.878	12.572	     0.000	   138.988	  1988.368	     0.000	     0.000	     1.000	     2.503	     0.019	    54.187	    54.207
121.02	-2691.516	-4543.227	 3631.442	  30.649	 854.687	13.067	     0.000	   136.873	  2012.994	     0.000	     0.000	     1.000	     2.524	     0.058	    53.806	    53.863
122.02	-2692.057	-4543.899	 3631.426	  31.344	 871.736	13.577	     0.000	   134.759	  2037.820	     0.000	     0.000	     1.000	     2.544	     0.057	    53.429	    53.485
123.02	-2692.610	-4544.582	 3631.405	  32.049	 889.029	14.101	     0.000	   132.644	  2062.850	     0.000	     0.000	     1.000	     2.565	     0.037	    53.056	    53.093
124.02	-2693.176	-4545.279	 3631.377	  32.764	 906.569	14.640	     0.000	   130.529	  2088.087	     0.000	     0.000	     1.000	     2.587	     0.018	    52.688	    52.706
125.02	-2693.753	-4545.988	 3631.342	  33.490	 924.358	15.194	     0.000	   128.414	  2113.536	     0.000	     0.000	     1.000	     2.608	     0.128	    52.324	    52.452
126.02	-2694.342	-4546.710	 3631.302	  34.226	 942.402	15.764	     0.000	   126.299	  2139.198	     0.000	     0.000	     1.000	     2.630	     0.109	    51.964	    52.073
127.02	-2694.943	-4547.446	 3631.254	  34.974	 960.702	16.349	     0.000	   124.184	  2165.079	     0.000	     0.000	     1.000	     2.653	     0.090	    51.608	    51.698
128.02	-2695.557	-4548.194	 3631.200	  35.732	 979.263	16.950	     0.000	   122.069	  2191.181	     0.000	     0.000	     1.000	     2.676	     0.071	    51.257	    51.328
129.02	-2696.184	-4548.955	 3631.139	  36.500	 998.089	17.568	     0.000	   119.954	  2217.509	     0.000	     0.000	     1.000	     2.699	     0.053	    50.910	    50.963
130.02	-2696.824	-4549.730	 3631.070	  37.280	1017.182	18.201	     0.000	   117.839	  2244.066	     0.000	     0.000	     1.000	     2.722	     0.035	    50.568	    50.602
131.02	-2697.476	-4550.519	 3630.994	  38.071	1036.548	18.852	     0.000	   115.725	  2270.856	     0.000	     0.000	     1.000	     2.747	     0.017	    50.229	    50.246
132.02	-2698.142	-4551.321	 3630.911	  38.872	1056.189	19.519	     0.000	   113.610	  2297.885	     0.000	     0.000	     1.000	     2.771	     0.118	    49.895	    50.014
133.02	-2698.821	-4552.137	 3630.820	  39.685	1076.111	20.204	     0.000	   111.495	  2325.155	     0.000	     0.000	     1.000	     2.796	     0.100	    49.565	    49.665
134.02	-2699.513	-4552.968	 3630.721	  40.510	1096.316	20.906	     0.000	   109.380	  2352.672	     0.000	     0.000	     1.000	     2.821	     0.082	    49.240	    49.322
135.02	-2700.220	-4553.812	 3630.614	  41.345	1116.810	21.626	     0.000	   107.265	  2380.439	     0.000	     0.000	     1.000	     2.847	     0.049	    48.918	    48.967
136.02	-2700.939	-4554.672	 3630.499	  42.193	1137.251	22.364	     0.000	   105.150	  2408.461	     0.000	     0.000	     1.000	     2.873	    14.938	    48.654	    50.992
137.02	-2701.666	-4555.549	 3630.377	  43.052	1156.122	23.118	     0.000	   103.035	  2436.744	     0.000	     0.000	     1.000	     2.900	    27.447	    48.495	    48.948
138.02	-2702.396	-4556.448	 3630.248	  43.923	1174.328	23.885	     0.000	   100.920	  2465.292	     0.000	     0.000	     1.000	     2.928	    26.902	    48.372	    48.954
139.02	-2703.128	-4557.367	 3630.111	  44.807	1192.912	24.666	     0.000	    98.806	  2494.110	     0.000	     0.000	     1.000	     2.955	    26.370	    48.249	    48.961
140.02	-2703.862	-4558.308	 3629.968	  45.703	1211.877	25.461	     0.000	    96.691	  2523.203	     0.000	     0.000	     1.000	     2.984	    25.853	    48.124	    48.968
141.02	-2704.598	-4559.271	 3629.819	  46.611	1231.224	26.270	     0.000	    94.576	  2552.576	     0.000	     0.000	     1.000	     3.013	    25.349	    48.000	    48.976
142.02	-2705.336	-4560.255	 3629.662	  47.532	1250.954	27.092	     0.000	    92.461	  2582.235	     0.000	     0.000	     1.000	     3.042	    24.858	    47.876	    48.983
143.02	-2706.077	-4561.262	 3629.498	  48.466	1271.072	27.930	     0.000	    90.346	  2612.186	     0.000	     0.000	     1.000	     3.072	    24.380	    47.752	    48.991
144.02	-2706.821	-4562.291	 3629.328	  49.413	1291.578	28.781	     0.000	    88.231	  2642.434	     0.000	     0.000	     1.000	     3.103	    23.914	    47.629	    48.999
145.02	-2707.566	-4563.343	 3629.150	  50.373	1312.477	29.648	     0.000	    86.116	  2672.986	     0.000	     0.000	     1.000	     3.134	    23.461	    47.506	    49.007
146.02	-2708.315	-4564.417	 3628.966	  51.348	1333.771	30.529	     0.000	    84.001	  2703.847	     0.000	     0.000	     1.000	     3.166	    23.020	    47.385	    49.015
147.02	-2709.065	-4565.516	 3628.775	  52.336	1355.463	31.426	     0.000	    81.886	  2735.024	     0.000	     0.000	     1.000	     3.198	    22.591	    47.266	    49.023
148.02	-2709.819	-4566.638	 3628.577	  53.338	1377.558	32.338	     0.000	    79.772	  2766.523	     0.000	     0.000	     1.000	     3.232	    22.173	    47.148	    49.032
149.02	-2710.575	-4567.783	 3628.372	  54.355	1400.059	33.266	     0.000	    77.657	  2798.351	     0.000	     0.000	     1.000	     3.266	    21.766	    47.031	    49.041
150.02	-2711.335	-4568.954	 3628.160	  55.386	1422.971	34.210	     0.000	    75.542	  2830.515	     0.000	     0.000	     1.000	     3.300	    21.370	    46.917	    49.050
151.03	-2712.097	-4570.148	 3627.941	  56.432	1446.298	35.170	     0.000	    73.427	  2863.022	     0.000	     0.000	     1.000	     3.336	    20.984	    46.805	    49.059
152.03	-2712.862	-4571.368	 3627.715	  57.494	1470.046	36.147	     0.000	    71.312	  2895.880	     0.000	     0.000	     1.000	     3.372	    20.609	    46.695	    49.068
153.03	-2713.630	-4572.614	 3627.482	  58.571	1494.218	37.141	     0.000	    69.197	  2929.096	     0.000	     0.000	     1.000	     3.409	    20.243	    46.587	    49.077
154.03	-2714.401	-4573.884	 3627.242	  59.664	1518.822	38.152	     0.000	    67.082	  2962.678	     0.000	     0.000	     1.000	     3.447	    19.888	    46.482	    49.087
155.03	-2715.176	-4575.181	 3626.995	  60.773	1543.862	39.180	     0.000	    64.967	  2996.634	     0.000	     0.000	     1.000	     3.485	    19.541	    46.379	    49.097
156.03	-2715.953	-4576.501	 3626.742	  61.895	1553.090	40.224	     0.000	    63.910	  3013.755	     0.000	     0.000	     0.000	     0.000	    19.392	    46.218	    49.107
157.03	-2716.727	-4577.818	 3626.482	  63.012	1546.196	41.271	     0.000	    63.910	  3013.755	     0.000	     0.000	     0.000	     0.000	    19.478	    45.981	    49.117
158.03	-2717.497	-4579.128	 3626.217	  64.119	1538.945	42.319	     0.000	    63.910	  3013.755	     0.000	     0.000	     0.000	     0.000	    19.571	    45.729	    49.127
159.03	-2718.264	-4580.431	 3625.946	  65.216	1532.113	43.367	     0.000	    63.910	  3013.755	     0.000	     0.000	     0.000	     0.000	    19.664	    45.488	    49.137
160.03	-2719.026	-4581.727	 3625.671	  66.304	1525.312	44.415	     0.000	    63.910	  3013.755	     0.000	     0.000	     0.000	     0.000	    19.760	    45.245	    49.147
161.03	-2719.785	-4583.016	 3625.389	  67.382	1518.542	45.464	     0.000	    63.910	  3013.755	     0.000	     0.000	     0.000	     0.000	    25.365	    45.000	    54.676
162.03	-2720.540	-4584.299	 3625.102	  68.451	1511.803	46.513	     0.000	    63.910	  3013.755	     0.000	     0.000	     0.000	     0.000	    38.548	    44.753	    63.136
163.03	-2721.291	-4585.574	 3624.810	  69.511	1505.096	47.563	     0.000	    63.910	  3013.755	     0.000	     0.000	     0.000	     0.000	    52.746	    44.503	    65.148
164.03	-2722.038	-4586.843	 3624.513	  70.561	1498.421	48.613	     0.000	    63.910	  3013.755	     0.000	     0.000	     0.000	     0.000	    67.308	    44.252	    59.407
165.03	-2722.781	-4588.104	 3624.210	  71.602	1491.778	49.663	     0.000	    63.910	  3013.755	     0.000	     0.000	     0.000	     0.000	    82.020	    43.998	    49.067
166.03	-2723.520	-4589.359	 3623.902	  72.634	1485.169	50.713	     0.000	    63.910	  3013.755	     0.000	     0.000	     0.000	     0.000	   -96.785	    43.742	    36.769
167.03	-2724.256	-4590.607	 3623.588	  73.656	1478.592	51.763	     0.000	    63.910	  3013.755	     0.000	     0.000	     0.000	     0.000	  -111.532	    43.484	    23.633
168.03	-2724.988	-4591.848	 3623.269	  74.669	1472.049	52.814	     0.000	    63.910	  3013.755	     0.000	     0.000	     0.000	     0.000	  -121.032	    43.223	    14.996
169.03	-2725.715	-4593.082	 3622.944	  75.672	1465.540	53.864	     0.000	    63.910	  3013.755	     0.000	     0.000	     0.000	     0.000	  -121.300	    42.960	    14.988
170.03	-2726.439	-4594.309	 3622.615	  76.666	1459.065	54.915	     0.000	    63.910	  3013.755	     0.000	     0.000	     0.000	     0.000	  -121.569	    42.695	    14.979
171.03	-2727.160	-4595.529	 3622.279	  77.651	1452.625	55.966	     0.000	    63.910	  3013.755	     0.000	     0.000	     0.000	     0.000	  -121.841	    42.428	    14.970
172.03	-2727.876	-4596.742	 3621.939	  78.626	1446.220	57.017	     0.000	    63.910	  3013.755	     0.000	     0.000	     0.000	     0.000	  -122.116	    42.158	    14.961
173.03	-2728.588	-4597.949	 3621.593	  79.592	1439.850	58.068	     0.000	    63.910	  3013.755	     0.000	     0.000	     0.000	     0.000	  -122.393	    41.886	    14.953
174.03	-2729.297	-4599.148	 3621.242	  80.549	1433.516	59.119	     0.000	    63.910	  3013.755	     0.000	     0.000	     0.000	     0.000	  -122.671	    41.612	    14.944
175.03	-2730.002	-4600.341	 3620.885	  81.496	1427.219	60.169	     0.000	    63.910	  3013.755	     0.000	     0.000	     0.000	     0.000	  -122.953	    41.335	    14.935
176.03	-2730.703	-4601.527	 3620.523	  82.434	1420.958	61.220	     0.000	    63.910	  3013.755	     0.000	     0.000	     0.000	     0.000	  -123.236	    41.056	    14.926
177.03	-2731.400	-4602.706	 3620.156	  83.362	1414.734	62.271	     0.000	    63.910	  3013.755	     0.000	     0.000	     0.000	     0.000	  -123.522	    40.774	    14.918
178.03	-2732.093	-4603.878	 3619.783	  84.282	1408.547	63.322	     0.000	    63.910	  3013.755	     0.000	     0.000	     0.000	     0.000	  -123.811	    40.490	    14.909
179.03	-2732.782	-4605.043	 3619.405	  85.192	1402.399	64.373	     0.000	    63.910	  3013.755	     0.000	     0.000	     0.000	     0.000	  -124.101	    40.203	    14.900
180.03	-2733.468	-4606.201	 3619.022	  86.092	1396.288	65.424	     0.000	    63.910	  3013.755	     0.000	     0.000	     0.000	     0.000	  -124.394	    39.914	    14.891
181.03	-2734.150	-4607.353	 3618.633	  86.983	1390.217	66.474	     0.000	    63.910	  3013.755	     0.000	     0.000	     0.000	     0.000	  -124.579	    39.623	    14.997
182.03	-2734.827	-4608.497	 3618.239	  87.865	1384.184	67.525	     0.000	    63.910	  3013.755	     0.000	     0.000	     0.000	     0.000	  -124.877	    39.328	    14.988
183.03	-2735.501	-4609.635	 3617.840	  88.738	1378.192	68.575	     0.000	    63.910	  3013.755	     0.000	     0.000	     0.000	     0.000	  -125.177	    39.032	    14.979
184.03	-2736.171	-4610.766	 3617.435	  89.601	1372.239	69.626	     0.000	    63.910	  3013.755	     0.000	     0.000	     0.000	     0.000	  -125.480	    38.733	    14.971
185.03	-2736.838	-4611.890	 3617.025	  90.455	1366.327	70.676	     0.000	    63.910	  3013.755	     0.000	     0.000	     0.000	     0.000	  -125.785	    38.431	    14.962
186.03	-2737.500	-4613.007	 3616.610	  91.299	1360.456	71.727	     0.000	    63.910	  3013.755	     0.000	     0.000	     0.000	     0.000	  -126.093	    38.127	    14.953
187.03	-2738.159	-4614.117	 3616.189	  92.135	1354.627	72.777	     0.000	    63.910	  3013.755	     0.000	     0.000	     0.000	     0.000	  -126.403	    37.820	    14.945
188.03	-2738.813	-4615.221	 3615.763	  92.961	1348.839	73.827	     0.000	    63.910	  3013.755	     0.000	     0.000	     0.000	     0.000	  -126.716	    37.510	    14.936
189.03	-2739.464	-4616.317	 3615.332	  93.777	1343.094	74.877	     0.000	    63.910	  3013.755	     0.000	     0.000	     0.000	     0.000	  -127.031	    37.198	    14.927
190.03	-2740.111	-4617.407	 3614.895	  94.584	1337.391	75.927	     0.000	    63.910	  3013.755	     0.000	     0.000	     0.000	     0.000	  -127.349	    36.884	    14.918
191.03	-2740.754	-4618.490	 3614.453	  95.382	1331.732	76.977	     0.000	    63.910	  3013.755	     0.000	     0.000	     0.000	     0.000	  -127.669	    36.566	    14.910
192.03	-2741.394	-4619.566	 3614.006	  96.171	1326.117	78.027	     0.000	    63.910	  3013.755	     0.000	     0.000	     0.000	     0.000	  -127.992	    36.246	    14.901
193.03	-2742.029	-4620.635	 3613.553	  96.950	1320.546	79.076	     0.000	    63.910	  3013.755	     0.000	     0.000	     0.000	     0.000	  -128.318	    35.923	    14.892
194.03	-2742.661	-4621.697	 3613.095	  97.720	1315.020	80.126	     0.000	    63.910	  3013.755	     0.000	     0.000	     0.000	     0.000	  -128.536	    35.598	    14.997
195.03	-2743.288	-4622.752	 3612.632	  98.481	1309.540	81.175	     0.000	    63.910	  3013.755	     0.000	     0.000	     0.000	     0.000	  -128.866	    35.270	    14.989
196.03	-2743.912	-4623.801	 3612.164	  99.233	1304.105	82.224	     0.000	    63.910	  3013.755	     0.000	     0.000	     0.000	     0.000	  -129.199	    34.939	    14.980
197.03	-2744.532	-4624.843	 3611.690	  99.975	1298.717	83.274	     0.000	    63.910	  3013.755	     0.000	     0.000	     0.000	     0.000	  -129.535	    34.606	    14.971
198.03	-2745.148	-4625.877	 3611.211	 100.708	1293.375	84.323	     0.000	    63.910	  3013.755	     0.000	     0.000	     0.000	     0.000	  -129.874	    34.269	    14.963
199.03	-2745.761	-4626.906	 3610.726	 101.431	1288.081	85.371	     0.000	    63.910	  3013.755	     0.000	     0.000	     0.000	     0.000	  -130.215	    33.930	    14.954
200.03	-2746.369	-4627.927	 3610.237	 102.145	1282.835	86.420	     0.000	    63.910	  3013.755	     0.000	     0.000	     0.000	     0.000	  -130.558	    33.589	    14.945
201.03	-2746.974	-4628.941	 3609.742	 102.850	1277.638	87.469	     0.000	    63.910	  3013.755	     0.000	     0.000	     0.000	     0.000	  -130.904	    33.244	    14.936
202.03	-2747.574	-4629.949	 3609.242	 103.546	1272.489	88.518	     0.000	    63.910	  3013.755	     0.000	     0.000	     0.000	     0.000	  -131.253	    32.897	    14.928
203.03	-2748.171	-4630.949	 3608.736	 104.232	1267.390	89.566	     0.000	    63.910	  3013.755	     0.000	     0.000	     0.000	     0.000	  -131.605	    32.547	    14.919
204.03	-2748.764	-4631.943	 3608.225	 104.909	1262.341	90.614	     0.000	    63.910	  3013.755	     0.000	     0.000	     0.000	     0.000	  -131.959	    32.194	    14.910
205.03	-2749.353	-4632.930	 3607.709	 105.577	1257.342	91.662	     0.000	    63.910	  3013.755	     0.000	     0.000	     0.000	     0.000	  -132.315	    31.838	    14.902
206.03	-2749.938	-4633.910	 3607.188	 106.236	1252.395	92.711	     0.000	    63.910	  3013.755	     0.000	     0.000	     0.000	     0.000	  -132.675	    31.480	    14.893
207.03	-2750.520	-4634.883	 3606.661	 106.885	1247.500	93.758	     0.000	    63.910	  3013.755	     0.000	     0.000	     0.000	     0.000	  -132.927	    31.119	    14.998
208.03	-2751.097	-4635.850	 3606.129	 107.525	1242.657	94.806	     0.000	    63.910	  3013.755	     0.000	     0.000	     0.000	     0.000	  -133.292	    30.755	    14.990
209.03	-2751.671	-4636.810	 3605.592	 108.156	1237.866	95.854	     0.000	    63.910	  3013.755	     0.000	     0.000	     0.000	     0.000	  -133.659	    30.388	    14.981
210.03	-2752.241	-4637.762	 3605.050	 108.777	1233.129	96.902	     0.000	    63.910	  3013.755	     0.000	     0.000	     0.000	     0.000	  -134.029	    30.018	    14.972
211.03	-2752.807	-4638.708	 3604.502	 109.389	1228.446	97.949	     0.000	    63.910	  3013.755	     0.000	     0.000	     0.000	     0.000	  -134.402	    29.646	    14.963
212.03	-2753.369	-4639.647	 3603.949	 109.992	1223.818	98.996	     0.000	    63.910	  3013.755	     0.000	     0.000	     0.000	     0.000	  -134.777	    29.271	    14.955
213.03	-2753.927	-4640.580	 3603.391	 110.586	1219.244	100.044	     0.000	    63.910	  3013.755	     0.000	     0.000	     0.000	     0.000	  -135.155	    28.893	    14.946
214.03	-2754.481	-4641.505	 3602.828	 111.170	1214.726	101.091	     0.000	    63.910	  3013.755	     0.000	     0.000	     0.000	     0.000	  -135.535	    28.512	    14.937
215.03	-2755.032	-4642.424	 3602.259	 111.745	1210.265	102.138	     0.000	    63.910	  3013.755	     0.000	     0.000	     0.000	     0.000	  -135.918	    28.128	    14.929
216.03	-2755.578	-4643.336	 3601.685	 112.311	1205.860	103.185	     0.000	    63.910	  3013.755	     0.000	     0.000	     0.000	     0.000	  -136.303	    27.742	    14.920
217.03	-2756.121	-4644.241	 3601.106	 112.868	1201.513	104.231	     0.000	    63.910	  3013.755	     0.000	     0.000	     0.000	     0.000	  -136.691	    27.353	    14.911
218.03	-2756.660	-4645.139	 3600.521	 113.415	1197.223	105.278	     0.000	    63.910	  3013.755	     0.000	     0.000	     0.000	     0.000	  -137.082	    26.961	    14.903
219.03	-2757.195	-4646.030	 3599.932	 113.953	1192.992	106.325	     0.000	    63.910	  3013.755	     0.000	     0.000	     0.000	     0.000	  -137.475	    26.566	    14.894
220.03	-2757.726	-4646.915	 3599.337	 114.482	1188.820	107.371	     0.000	    63.910	  3013.755	     0.000	     0.000	     0.000	     0.000	  -137.762	    26.169	    15.000
221.03	-2758.253	-4647.793	 3598.736	 115.001	1184.708	108.417	     0.000	    63.910	  3013.755	     0.000	     0.000	     0.000	     0.000	  -138.160	    25.769	    14.991
222.03	-2758.777	-4648.664	 3598.131	 115.511	1180.656	109.464	     0.000	    63.910	  3013.755	     0.000	     0.000	     0.000	     0.000	  -138.561	    25.366	    14.982
223.03	-2759.296	-4649.528	 3597.520	 116.012	1176.665	110.510	     0.000	    63.910	  3013.755	     0.000	     0.000	     0.000	     0.000	  -138.964	    24.960	    14.974
224.03	-2759.812	-4650.385	 3596.904	 116.504	1172.736	111.556	     0.000	    63.910	  3013.755	     0.000	     0.000	     0.000	     0.000	  -139.369	    24.552	    14.965
225.03	-2760.323	-4651.235	 3596.283	 116.987	1168.868	112.602	     0.000	    63.910	  3013.755	     0.000	     0.000	     0.000	     0.000	  -139.777	    24.140	    14.956
226.03	-2760.831	-4652.079	 3595.657	 117.460	1165.063	113.648	     0.000	    63.910	  3013.755	     0.000	     0.000	     0.000	     0.000	  -140.188	    23.727	    14.948
227.03	-2761.335	-4652.916	 3595.025	 117.924	1161.321	114.693	     0.000	    63.910	  3013.755	     0.000	     0.000	     0.000	     0.000	  -140.600	    23.310	    14.939
228.03	-2761.835	-4653.746	 3594.389	 118.379	1157.642	115.739	     0.000	    63.910	  3013.755	     0.000	     0.000	     0.000	     0.000	  -141.015	    22.891	    14.930
229.03	-2762.332	-4654.569	 3593.746	 118.824	1154.028	116.785	     0.000	    63.910	  3013.755	     0.000	     0.000	     0.000	     0.000	  -141.432	    22.470	    14.921
230.03	-2762.824	-4655.386	 3593.099	 119.261	1150.479	117.830	     0.000	    63.910	  3013.755	     0.000	     0.000	     0.000	     0.000	  -141.852	    22.045	    14.913
231.03	-2763.312	-4656.195	 3592.447	 119.688	1146.995	118.875	     0.000	    63.910	  3013.755	     0.000	     0.000	     0.000	     0.000	  -142.274	    21.618	    14.904
232.03	-2763.797	-4656.998	 3591.789	 120.105	1143.577	119.921	     0.000	    63.910	  3013.755	     0.000	     0.000	     0.000	     0.000	  -142.698	    21.189	    14.895
233.03	-2764.278	-4657.794	 3591.126	 120.514	1140.226	120.966	     0.000	    63.910	  3013.755	     0.000	     0.000	     0.000	     0.000	  -143.124	    20.757	    14.887
234.03	-2764.754	-4658.583	 3590.458	 120.913	1136.941	122.011	     0.000	    63.910	  3013.755	     0.000	     0.000	     0.000	     0.000	  -143.445	    20.323	    14.992
235.03	-2765.227	-4659.365	 3589.785	 121.303	1133.725	123.056	     0.000	    63.910	  3013.755	     0.000	     0.000	     0.000	     0.000	  -143.875	    19.886	    14.984
236.03	-2765.696	-4660.141	 3589.106	 121.684	1130.576	124.101	     0.000	    63.910	  3013.755	     0.000	     0.000	     0.000	     0.000	  -144.308	    19.446	    14.975
237.03	-2766.162	-4660.910	 3588.422	 122.056	1127.496	125.146	     0.000	    63.910	  3013.755	     0.000	     0.000	     0.000	     0.000	  -144.742	    19.005	    14.966
238.03	-2766.623	-4661.672	 3587.733	 122.418	1124.485	126.191	     0.000	    63.910	  3013.755	     0.000	     0.000	     0.000	     0.000	  -145.178	    18.561	    14.958
239.03	-2767.080	-4662.427	 3587.039	 122.771	1121.544	127.235	     0.000	    63.910	  3013.755	     0.000	     0.000	     0.000	     0.000	  -145.616	    18.114	    14.949
240.03	-2767.534	-4663.175	 3586.340	 123.115	1118.673	128.280	     0.000	    63.910	  3013.755	     0.000	     0.000	     0.000	     0.000	  -146.056	    17.665	    14.940
241.03	-2767.983	-4663.917	 3585.635	 123.450	1115.873	129.325	     0.000	    63.910	  3013.755	     0.000	     0.000	     0.000	     0.000	  -146.498	    17.214	    14.932
242.03	-2768.429	-4664.651	 3584.925	 123.775	1113.144	130.369	     0.000	    63.910	  3013.755	     0.000	     0.000	     0.000	     0.000	  -146.941	    16.761	    14.923
243.03	-2768.871	-4665.379	 3584.210	 124.091	1110.486	131.414	     0.000	    63.910	  3013.755	     0.000	     0.000	     0.000	     0.000	  -147.386	    16.306	    14.914
244.03	-2769.309	-4666.100	 3583.490	 124.398	1107.901	132.458	     0.000	    63.910	  3013.755	     0.000	     0.000	     0.000	     0.000	  -147.833	    15.848	    14.906
245.03	-2769.743	-4666.815	 3582.765	 124.696	1105.389	133.503	     0.000	    63.910	  3013.755	     0.000	     0.000	     0.000	     0.000	  -148.281	    15.389	    14.897
246.03	-2770.173	-4667.522	 3582.034	 124.985	1102.950	134.547	     0.000	    63.910	  3013.755	     0.000	     0.000	     0.000	     0.000	  -148.730	    14.927	    14.888
247.03	-2770.599	-4668.223	 3581.298	 125.264	1100.584	135.591	     0.000	    63.910	  3013.755	     0.000	     0.000	     0.000	     0.000	   149.076	    14.463	    14.994
248.03	-2771.021	-4668.917	 3580.557	 125.534	1098.293	136.635	     0.000	    63.910	  3013.755	     0.000	     0.000	     0.000	     0.000	   149.528	    13.998	    14.985
249.03	-2771.440	-4669.604	 3579.811	 125.795	1096.076	137.679	     0.000	    63.910	  3013.755	     0.000	     0.000	     0.000	     0.000	   149.981	    13.530	    14.977
250.03	-2771.854	-4670.284	 3579.060	 126.046	1093.934	138.724	     0.000	    63.910	  3013.755	     0.000	     0.000	     0.000	     0.000	   150.435	    13.061	    14.968
251.03	-2772.265	-4670.958	 3578.303	 126.289	1091.867	139.768	     0.000	    63.910	  3013.755	     0.000	     0.000	     0.000	     0.000	   150.891	    12.590	    14.959
252.03	-2772.672	-4671.624	 3577.542	 126.522	1089.876	140.812	     0.000	    63.910	  3013.755	     0.000	     0.000	     0.000	     0.000	   151.347	    12.117	    14.951
253.03	-2773.074	-4672.284	 3576.775	 126.746	1087.961	141.856	     0.000	    63.910	  3013.755	     0.000	     0.000	     0.000	     0.000	   151.804	    11.642	    14.942
254.03	-2773.473	-4672.937	 3576.003	 126.961	1086.123	142.900	     0.000	    63.910	  3013.755	     0.000	     0.000	     0.000	     0.000	   152.262	    11.166	    14.933
255.03	-2773.868	-4673.584	 3575.225	 127.166	1084.362	143.943	     0.000	    63.910	  3013.755	     0.000	     0.000	     0.000	     0.000	   152.720	    10.688	    14.925
256.03	-2774.259	-4674.223	 3574.443	 127.362	1082.678	144.987	     0.000	    63.910	  3013.755	     0.000	     0.000	     0.000	     0.000	   153.179	    10.209	    14.916
257.03	-2774.647	-4674.856	 3573.655	 127.549	1081.071	146.031	     0.000	    63.910	  3013.755	     0.000	     0.000	     0.000	     0.000	   153.638	     9.728	    14.907
258.03	-2775.030	-4675.482	 3572.863	 127.727	1079.542	147.075	     0.000	    63.910	  3013.755	     0.000	     0.000	     0.000	     0.000	   154.097	     9.246	    14.899
259.03	-2775.409	-4676.101	 3572.065	 127.896	1078.092	148.119	     0.000	    63.910	  3013.755	     0.000	     0.000	     0.000	     0.000	   154.557	     8.762	    14.890
260.03	-2775.785	-4676.713	 3571.262	 128.055	1076.720	149.163	     0.000	    63.910	  3013.755	     0.000	     0.000	     0.000	     0.000	   154.915	     8.278	    14.996
261.03	-2776.156	-4677.319	 3570.453	 128.206	1075.427	150.206	     0.000	    63.910	  3013.755	     0.000	     0.000	     0.000	     0.000	   155.375	     7.792	    14.987
262.03	-2776.524	-4677.917	 3569.640	 128.346	1074.213	151.250	     0.000	    63.910	  3013.755	     0.000	     0.000	     0.000	     0.000	   155.834	     7.305	    14.978
263.03	-2776.888	-4678.509	 3568.821	 128.478	1073.079	152.294	     0.000	    63.910	  3013.755	     0.000	     0.000	     0.000	     0.000	   156.293	     6.817	    14.970
264.03	-2777.247	-4679.094	 3567.998	 128.601	1072.024	153.338	     0.000	    63.910	  3013.755	     0.000	     0.000	     0.000	     0.000	   156.752	     6.328	    14.961
265.03	-2777.603	-4679.673	 3567.169	 128.714	1071.048	154.381	     0.000	    63.910	  3013.755	     0.000	     0.000	     0.000	     0.000	   157.210	     5.838	    14.952
266.03	-2777.954	-4680.244	 3566.337	 128.819	1062.123	155.423	     0.000	    63.632	  3023.353	     0.000	     0.000	     0.750	     1.775	   157.506	     5.492	    14.944
267.03	-2778.297	-4680.805	 3565.516	 128.919	1039.691	156.448	     0.000	    62.952	  3046.985	     0.000	     0.000	     1.000	     2.511	   157.491	     5.427	    14.935
268.03	-2778.628	-4681.355	 3564.712	 129.016	1016.005	157.451	     0.000	    62.247	  3071.685	     0.000	     0.000	     1.000	     2.531	   157.435	     5.391	    14.927
269.03	-2778.947	-4681.894	 3563.927	 129.110	 992.147	158.430	     0.000	    61.543	  3096.586	     0.000	     0.000	     1.000	     2.552	   157.370	     5.358	    14.919
270.03	-2779.255	-4682.422	 3563.160	 129.201	 968.118	159.386	     0.000	    60.838	  3121.693	     0.000	     0.000	     1.000	     2.573	   157.295	     5.326	    14.911
271.03	-2779.552	-4682.939	 3562.411	 129.290	 943.914	160.318	     0.000	    60.133	  3147.008	     0.000	     0.000	     1.000	     2.595	   157.208	     5.296	    14.903
272.03	-2779.837	-4683.444	 3561.682	 129.375	 919.536	161.226	     0.000	    59.428	  3172.535	     0.000	     0.000	     1.000	     2.616	   157.109	     5.268	    14.896
273.03	-2780.110	-4683.938	 3560.970	 129.458	 894.982	162.111	     0.000	    58.723	  3198.279	     0.000	     0.000	     1.000	     2.639	   156.996	     5.243	    14.889
274.03	-2780.372	-4684.420	 3560.279	 129.539	 870.262	162.971	     0.000	    58.018	  3224.241	     0.000	     0.000	     1.000	     2.661	   156.774	     5.223	    14.996
275.03	-2780.622	-4684.891	 3559.606	 129.617	 845.370	163.806	     0.000	    57.313	  3250.427	     0.000	     0.000	     1.000	     2.684	   156.626	     5.207	    14.989
276.03	-2780.860	-4685.351	 3558.953	 129.693	 820.302	164.617	     0.000	    56.608	  3276.839	     0.000	     0.000	     1.000	     2.708	   156.459	     5.194	    14.983
277.03	-2781.087	-4685.799	 3558.319	 129.766	 795.056	165.403	     0.000	    55.903	  3303.483	     0.000	     0.000	     1.000	     2.731	   156.270	     5.186	    14.976
278.03	-2781.301	-4686.236	 3557.706	 129.836	 769.634	166.164	     0.000	    55.198	  3330.361	     0.000	     0.000	     1.000	     2.756	   156.056	     5.183	    14.970
279.03	-2781.503	-4686.661	 3557.113	 129.905	 744.037	166.899	     0.000	    54.493	  3357.479	     0.000	     0.000	     1.000	     2.780	   155.815	     5.184	    14.964
280.03	-2781.694	-4687.075	 3556.540	 129.971	 718.268	167.610	     0.000	    53.788	  3384.840	     0.000	     0.000	     1.000	     2.805	   155.542	     5.192	    14.959
281.03	-2781.872	-4687.477	 3555.987	 130.035	 692.329	168.294	     0.000	    53.083	  3412.449	     0.000	     0.000	     1.000	     2.831	   155.233	     5.205	    14.953
282.03	-2782.037	-4687.868	 3555.456	 130.097	 666.226	168.952	     0.000	    52.378	  3440.311	     0.000	     0.000	     1.000	     2.857	   154.884	     5.227	    14.948
283.03	-2782.191	-4688.247	 3554.946	 130.156	 639.963	169.584	     0.000	    51.673	  3468.430	     0.000	     0.000	     1.000	     2.883	   154.487	     5.256	    14.943
284.03	-2782.332	-4688.614	 3554.457	 130.214	 613.548	170.190	     0.000	    50.968	  3496.811	     0.000	     0.000	     1.000	     2.910	   154.037	     5.295	    14.938
285.03	-2782.460	-4688.969	 3553.990	 130.270	 586.992	170.769	     0.000	    50.263	  3525.458	     0.000	     0.000	     1.000	     2.938	   153.523	     5.345	    14.934
286.03	-2782.580	-4689.315	 3553.531	 130.320	 586.207	171.334	     0.000	    50.263	  3525.458	     0.000	     0.000	     0.000	     0.000	   154.157	     4.486	    14.930
287.03	-2782.697	-4689.654	 3553.068	 130.361	 585.570	171.899	     0.000	    50.263	  3525.458	     0.000	     0.000	     0.000	     0.000	   154.843	     3.576	    14.925
288.03	-2782.809	-4689.986	 3552.599	 130.393	 585.082	172.464	     0.000	    50.263	  3525.458	     0.000	     0.000	     0.000	     0.000	   155.516	     2.665	    14.921
289.03	-2782.917	-4690.312	 3552.126	 130.415	 584.744	173.029	     0.000	    50.263	  3525.458	     0.000	     0.000	     0.000	     0.000	   156.175	     1.752	    14.917
290.03	-2783.021	-4690.631	 3551.647	 130.428	 584.555	173.594	     0.000	    50.263	  3525.458	     0.000	     0.000	     0.000	     0.000	   156.818	     0.839	    14.913
291.03	-2783.121	-4690.943	 3551.163	 130.432	 584.515	174.159	     0.000	    50.263	  3525.458	     0.000	     0.000	     0.000	     0.000	   172.439	    -0.075	     4.992
292.03	-2783.218	-4691.248	 3550.674	 130.426	 584.626	174.725	     0.000	    50.263	  3525.458	     0.000	     0.000	     0.000	     0.000	   179.908	    -0.989	     0.897
293.03	-2783.310	-4691.546	 3550.179	 130.411	 584.885	175.290	     0.000	    50.263	  3525.458	     0.000	     0.000	     0.000	     0.000	   179.954	    -1.902	     1.856
294.03	-2783.398	-4691.838	 3549.680	 130.387	 585.295	175.856	     0.000	    50.263	  3525.458	     0.000	     0.000	     0.000	     0.000	   179.862	    -2.814	     2.676
295.03	-2783.483	-4692.123	 3549.175	 130.353	 585.853	176.421	     0.000	    50.263	  3525.458	     0.000	     0.000	     0.000	     0.000	   179.908	    -3.725	     3.633
296.03	-2783.563	-4692.401	 3548.666	 130.310	 586.560	176.987	     0.000	    50.263	  3525.458	     0.000	     0.000	     0.000	     0.000	   179.954	    -4.633	     4.588
297.03	-2783.640	-4692.673	 3548.151	 130.258	 587.415	177.552	     0.000	    50.263	  3525.458	     0.000	     0.000	     0.000	     0.000	   179.863	    -5.540	     5.403
298.03	-2783.712	-4692.937	 3547.631	 130.196	 588.417	178.118	     0.000	    50.263	  3525.458	     0.000	     0.000	     0.000	     0.000	   179.909	    -6.443	     6.353
299.03	-2783.781	-4693.195	 3547.106	 130.125	 589.567	178.684	     0.000	    50.263	  3525.458	     0.000	     0.000	     0.000	     0.000	   179.955	    -7.344	     7.298
300.03	-2783.845	-4693.446	 3546.576	 130.045	 590.862	179.250	     0.000	    50.263	  3525.458	     0.000	     0.000	     0.000	     0.000	   179.865	    -8.240	     8.105
301.03	-2783.906	-4693.691	 3546.041	 129.956	 592.302	179.816	     0.000	    50.263	  3525.458	     0.000	     0.000	     0.000	     0.000	   179.910	    -9.133	     9.043
302.03	-2783.963	-4693.928	 3545.500	 129.857	 593.886	180.382	     0.000	    50.263	  3525.458	     0.000	     0.000	     0.000	     0.000	   179.955	   -10.021	     9.976
303.03	-2784.015	-4694.159	 3544.955	 129.748	 595.613	180.948	     0.000	    50.263	  3525.458	     0.000	     0.000	     0.000	     0.000	   179.867	   -10.904	    10.771
304.03	-2784.064	-4694.383	 3544.404	 129.631	 597.482	181.514	     0.000	    50.263	  3525.458	     0.000	     0.000	     0.000	     0.000	   179.912	   -11.781	    11.693
305.03	-2784.109	-4694.600	 3543.848	 129.504	 599.490	182.081	     0.000	    50.263	  3525.458	     0.000	     0.000	     0.000	     0.000	   179.956	   -12.654	    12.610
306.03	-2784.149	-4694.811	 3543.287	 129.368	 601.638	182.647	     0.000	    50.263	  3525.458	     0.000	     0.000	     0.000	     0.000	   179.870	   -13.520	    13.389
307.03	-2784.186	-4695.014	 3542.721	 129.222	 603.923	183.214	     0.000	    50.263	  3525.458	     0.000	     0.000	     0.000	     0.000	   179.914	   -14.379	    14.293
308.03	-2784.219	-4695.211	 3542.150	 129.068	 606.344	183.780	     0.000	    50.263	  3525.458	     0.000	     0.000	     0.000	     0.000	   179.957	   -15.233	    15.190
309.03	-2784.247	-4695.401	 3541.574	 128.903	 608.899	184.347	     0.000	    50.263	  3525.458	     0.000	     0.000	     0.000	     0.000	   179.873	   -16.079	    15.951
310.03	-2784.272	-4695.585	 3540.992	 128.730	 611.587	184.914	     0.000	    50.263	  3525.458	     0.000	     0.000	     0.000	     0.000	   179.916	   -16.918	    16.834
311.03	-2784.293	-4695.761	 3540.406	 128.547	 614.406	185.481	     0.000	    50.263	  3525.458	     0.000	     0.000	     0.000	     0.000	   179.958	   -17.749	    17.708
312.03	-2784.310	-4695.931	 3539.814	 128.355	 617.355	186.048	     0.000	    50.263	  3525.458	     0.000	     0.000	     0.000	     0.000	   179.876	   -18.573	    18.449
313.03	-2784.323	-4696.094	 3539.217	 128.153	 620.430	186.615	     0.000	    50.263	  3525.458	     0.000	     0.000	     0.000	     0.000	   179.918	   -19.389	    19.307
314.03	-2784.331	-4696.251	 3538.615	 127.943	 623.631	187.182	     0.000	    50.263	  3525.458	     0.000	     0.000	     0.000	     0.000	   179.960	   -20.197	    20.156
315.03	-2784.336	-4696.400	 3538.008	 127.722	 626.956	187.749	     0.000	    50.263	  3525.458	     0.000	     0.000	     0.000	     0.000	   179.880	   -20.996	    20.876
316.03	-2784.337	-4696.543	 3537.396	 127.493	 630.402	188.317	     0.000	    50.263	  3525.458	     0.000	     0.000	     0.000	     0.000	   179.921	   -21.787	    21.707
317.03	-2784.334	-4696.679	 3536.779	 127.254	 633.968	188.884	     0.000	    50.263	  3525.458	     0.000	     0.000	     0.000	     0.000	   179.961	   -22.569	    22.529
318.03	-2784.327	-4696.808	 3536.156	 127.006	 637.652	189.452	     0.000	    50.263	  3525.458	     0.000	     0.000	     0.000	     0.000	   179.884	   -23.342	    23.226
319.03	-2784.316	-4696.930	 3535.529	 126.748	 641.452	190.019	     0.000	    50.263	  3525.458	     0.000	     0.000	     0.000	     0.000	   179.923	   -24.106	    24.029
320.03	-2784.300	-4697.046	 3534.896	 126.482	 645.366	190.587	     0.000	    50.263	  3525.458	     0.000	     0.000	     0.000	     0.000	   179.849	   -24.861	    24.710
321.03	-2784.281	-4697.155	 3534.259	 126.206	 649.391	191.155	     0.000	    50.263	  3525.458	     0.000	     0.000	     0.000	     0.000	   179.850	   -25.607	    25.457
322.03	-2784.258	-4697.257	 3533.616	 125.920	 653.526	191.723	     0.000	    50.263	  3525.458	     0.000	     0.000	     0.000	     0.000	   179.852	   -26.343	    26.196
323.03	-2784.231	-4697.352	 3532.968	 125.625	 657.769	192.291	     0.000	    50.263	  3525.458	     0.000	     0.000	     0.000	     0.000	   179.854	   -27.071	    26.925
324.03	-2784.200	-4697.441	 3532.315	 125.321	 662.118	192.859	     0.000	    50.263	  3525.458	     0.000	     0.000	     0.000	     0.000	   179.856	   -27.789	    27.645
325.03	-2784.164	-4697.523	 3531.656	 125.008	 666.571	193.428	     0.000	    50.263	  3525.458	     0.000	     0.000	     0.000	     0.000	   179.858	   -28.497	    28.355
326.03	-2784.125	-4697.598	 3530.993	 124.685	 671.125	193.996	     0.000	    50.263	  3525.458	     0.000	     0.000	     0.000	     0.000	   179.860	   -29.196	    29.056
327.03	-2784.082	-4697.666	 3530.325	 124.353	 675.779	194.565	     0.000	    50.263	  3525.458	     0.000	     0.000	     0.000	     0.000	   179.862	   -29.885	    29.747
328.03	-2784.035	-4697.727	 3529.651	 124.011	 680.530	195.133	     0.000	    50.263	  3525.458	     0.000	     0.000	     0.000	     0.000	   179.864	   -30.565	    30.429
329.03	-2783.984	-4697.782	 3528.972	 123.660	 685.377	195.702	     0.000	    50.263	  3525.458	     0.000	     0.000	     0.000	     0.000	   179.866	   -31.236	    31.101
330.03	-2783.928	-4697.830	 3528.288	 123.300	 690.318	196.271	     0.000	    50.263	  3525.458	     0.000	     0.000	     0.000	     0.000	   179.867	   -31.897	    31.764
331.03	-2783.869	-4697.871	 3527.600	 122.931	 695.351	196.840	     0.000	    50.263	  3525.458	     0.000	     0.000	     0.000	     0.000	   179.869	   -32.548	    32.418
332.03	-2783.806	-4697.905	 3526.905	 122.552	 700.474	197.409	     0.000	    50.263	  3525.458	     0.000	     0.000	     0.000	     0.000	   179.871	   -33.190	    33.062
333.03	-2783.738	-4697.933	 3526.206	 122.163	 705.685	197.978	     0.000	    50.263	  3525.458	     0.000	     0.000	     0.000	     0.000	   179.873	   -33.823	    33.696
334.03	-2783.667	-4697.954	 3525.502	 121.766	 710.982	198.548	     0.000	    50.263	  3525.458	     0.000	     0.000	     0.000	     0.000	   179.875	   -34.447	    34.322
335.03	-2783.592	-4697.968	 3524.793	 121.359	 716.363	199.117	     0.000	    50.263	  3525.458	     0.000	     0.000	     0.000	     0.000	   179.877	   -35.061	    34.938
336.03	-2783.512	-4697.975	 3524.078	 120.943	 721.827	199.687	     0.000	    50.263	  3525.458	     0.000	     0.000	     0.000	     0.000	   179.879	   -35.666	    35.544
337.03	-2783.429	-4697.975	 3523.358	 120.517	 727.371	200.257	     0.000	    50.263	  3525.458	     0.000	     0.000	     0.000	     0.000	   179.880	   -36.262	    36.142
338.03	-2783.342	-4697.969	 3522.634	 120.082	 732.994	200.827	     0.000	    50.263	  3525.458	     0.000	     0.000	     0.000	     0.000	   179.882	   -36.849	    36.731
339.03	-2783.250	-4697.956	 3521.904	 119.638	 738.694	201.397	     0.000	    50.263	  3525.458	     0.000	     0.000	     0.000	     0.000	   179.884	   -37.426	    37.310
340.03	-2783.155	-4697.936	 3521.169	 119.184	 744.470	201.967	     0.000	    50.263	  3525.458	     0.000	     0.000	     0.000	     0.000	   179.914	   -37.995	    37.910
341.03	-2783.055	-4697.909	 3520.429	 118.721	 750.320	202.537	     0.000	    50.263	  3525.458	     0.000	     0.000	     0.000	     0.000	   179.916	   -38.556	    38.471
342.03	-2782.952	-4697.875	 3519.684	 118.249	 756.241	203.107	     0.000	    50.263	  3525.458	     0.000	     0.000	     0.000	     0.000	   179.917	   -39.107	    39.024
343.03	-2782.844	-4697.835	 3518.933	 117.767	 762.233	203.678	     0.000	    50.263	  3525.458	     0.000	     0.000	     0.000	     0.000	   179.918	   -39.650	    39.568
344.03	-2782.732	-4697.788	 3518.178	 117.276	 768.295	204.249	     0.000	    50.263	  3525.458	     0.000	     0.000	     0.000	     0.000	   179.920	   -40.185	    40.104
345.03	-2782.617	-4697.734	 3517.417	 116.775	 774.423	204.820	     0.000	    50.263	  3525.458	     0.000	     0.000	     0.000	     0.000	   179.921	   -40.711	    40.631
346.03	-2782.497	-4697.673	 3516.652	 116.266	 780.617	205.390	     0.000	    50.263	  3525.458	     0.000	     0.000	     0.000	     0.000	   179.922	   -41.228	    41.150
347.03	-2782.373	-4697.606	 3515.881	 115.746	 786.876	205.962	     0.000	    50.263	  3525.458	     0.000	     0.000	     0.000	     0.000	   179.923	   -41.738	    41.661
348.03	-2782.245	-4697.532	 3515.105	 115.218	 793.198	206.533	     0.000	    50.263	  3525.458	     0.000	     0.000	     0.000	     0.000	   179.924	   -42.240	    42.164
349.03	-2782.114	-4697.451	 3514.324	 114.680	 799.581	207.104	     0.000	    50.263	  3525.458	     0.000	     0.000	     0.000	     0.000	   179.926	   -42.733	    42.659
350.03	-2781.978	-4697.363	 3513.538	 114.133	 806.024	207.676	     0.000	    50.263	  3525.458	     0.000	     0.000	     0.000	     0.000	   179.927	   -43.219	    43.146
351.03	-2781.838	-4697.268	 3512.746	 113.576	 812.526	208.247	     0.000	    50.263	  3525.458	     0.000	     0.000	     0.000	     0.000	   179.928	   -43.697	    43.625
352.03	-2781.694	-4697.167	 3511.950	 113.010	 819.086	208.819	     0.000	    50.263	  3525.458	     0.000	     0.000	     0.000	     0.000	   179.929	   -44.168	    44.097
353.03	-2781.546	-4697.058	 3511.148	 112.435	 825.701	209.391	     0.000	    50.263	  3525.458	     0.000	     0.000	     0.000	     0.000	   179.930	   -44.631	    44.561
354.03	-2781.394	-4696.943	 3510.342	 111.850	 832.372	209.963	     0.000	    50.263	  3525.458	     0.000	     0.000	     0.000	     0.000	   179.931	   -45.087	    45.018
355.03	-2781.237	-4696.821	 3509.530	 111.256	 839.096	210.536	     0.000	    50.263	  3525.458	     0.000	     0.000	     0.000	     0.000	   179.887	   -45.535	    45.422
356.03	-2781.077	-4696.693	 3508.713	 110.652	 845.872	211.108	     0.000	    50.263	  3525.458	     0.000	     0.000	     0.000	     0.000	   179.978	   -45.976	    45.954
357.03	-2780.913	-4696.557	 3507.891	 110.039	 852.700	211.681	     0.000	    50.263	  3525.458	     0.000	     0.000	     0.000	     0.000	   179.934	   -46.411	    46.345
358.03	-2780.745	-4696.415	 3507.064	 109.417	 859.578	212.253	     0.000	    50.263	  3525.458	     0.000	     0.000	     0.000	     0.000	   179.892	   -46.838	    46.731
359.03	-2780.572	-4696.266	 3506.232	 108.785	 866.505	212.826	     0.000	    50.263	  3525.458	     0.000	     0.000	     0.000	     0.000	   179.979	   -47.259	    47.238
360.03	-2780.396	-4696.110	 3505.395	 108.144	 873.480	213.399	     0.000	    50.263	  3525.458	     0.000	     0.000	     0.000	     0.000	   179.937	   -47.673	    47.610
361.03	-2780.215	-4695.947	 3504.552	 107.494	 880.502	213.973	     0.000	    50.263	  3525.458	     0.000	     0.000	     0.000	     0.000	   179.897	   -48.080	    47.978
362.03	-2780.031	-4695.778	 3503.705	 106.834	 887.569	214.546	     0.000	    50.263	  3525.458	     0.000	     0.000	     0.000	     0.000	   179.980	   -48.481	    48.461
363.03	-2779.842	-4695.601	 3502.852	 106.165	 894.682	215.120	     0.000	    50.263	  3525.458	     0.000	     0.000	     0.000	     0.000	   179.940	   -48.876	    48.816
364.03	-2779.649	-4695.418	 3501.994	 105.486	 901.838	215.693	     0.000	    50.263	  3525.458	     0.000	     0.000	     0.000	     0.000	   179.902	   -49.265	    49.167
365.03	-2779.452	-4695.228	 3501.131	 104.798	 909.037	216.267	     0.000	    50.263	  3525.458	     0.000	     0.000	     0.000	     0.000	   179.981	   -49.647	    49.628
366.03	-2779.251	-4695.032	 3500.263	 104.101	 916.278	216.841	     0.000	    50.263	  3525.458	     0.000	     0.000	     0.000	     0.000	   179.962	   -50.023	    49.985
367.03	-2779.046	-4694.828	 3499.390	 103.394	 923.560	217.416	     0.000	    50.263	  3525.458	     0.000	     0.000	     0.000	     0.000	   179.981	   -50.394	    50.375
368.03	-2778.837	-4694.618	 3498.512	 102.678	 930.883	217.990	     0.000	    50.263	  3525.458	     0.000	     0.000	     0.000	     0.000	   179.871	   -50.759	    50.630
369.03	-2778.624	-4694.401	 3497.628	 101.952	 938.245	218.564	     0.000	    50.263	  3525.458	     0.000	     0.000	     0.000	     0.000	   179.891	   -51.118	    51.009
370.03	-2778.407	-4694.177	 3496.740	 101.217	 945.645	219.139	     0.000	    50.263	  3525.458	     0.000	     0.000	     0.000	     0.000	   179.911	   -51.471	    51.382
371.03	-2778.185	-4693.946	 3495.846	 100.473	 953.083	219.714	     0.000	    50.263	  3525.458	     0.000	     0.000	     0.000	     0.000	   179.930	   -51.819	    51.749
372.03	-2777.960	-4693.708	 3494.947	  99.719	 960.557	220.289	     0.000	    50.263	  3525.458	     0.000	     0.000	     0.000	     0.000	   179.948	   -52.162	    52.110
373.03	-2777.730	-4693.464	 3494.043	  98.956	 968.068	220.865	     0.000	    50.263	  3525.458	     0.000	     0.000	     0.000	     0.000	   179.966	   -52.499	    52.465
374.03	-2777.497	-4693.212	 3493.134	  98.183	 975.615	221.440	     0.000	    50.263	  3525.458	     0.000	     0.000	     0.000	     0.000	   179.983	   -52.831	    52.814
375.03	-2777.259	-4692.954	 3492.220	  97.401	 983.196	222.016	     0.000	    50.263	  3525.458	     0.000	     0.000	     0.000	     0.000	   179.884	   -53.158	    53.042
376.03	-2777.017	-4692.689	 3491.301	  96.609	 990.811	222.592	     0.000	    50.263	  3525.458	     0.000	     0.000	     0.000	     0.000	   179.902	   -53.480	    53.383
377.03	-2776.771	-4692.417	 3490.376	  95.808	 998.459	223.168	     0.000	    50.263	  3525.458	     0.000	     0.000	     0.000	     0.000	   179.968	   -53.798	    53.766
378.03	-2776.521	-4692.139	 3489.447	  94.998	1006.139	223.744	     0.000	    50.263	  3525.458	     0.000	     0.000	     0.000	     0.000	   179.905	   -54.110	    54.015
379.03	-2776.267	-4691.853	 3488.512	  94.178	1013.852	224.320	     0.000	    50.263	  3525.458	     0.000	     0.000	     0.000	     0.000	   179.969	   -54.418	    54.387
380.03	-2776.009	-4691.561	 3487.572	  93.349	1021.596	224.897	     0.000	    50.263	  3525.458	     0.000	     0.000	     0.000	     0.000	   179.908	   -54.721	    54.629
381.03	-2775.747	-4691.262	 3486.627	  92.511	1029.371	225.474	     0.000	    50.263	  3525.458	     0.000	     0.000	     0.000	     0.000	   179.970	   -55.019	    54.989
382.03	-2775.480	-4690.956	 3485.677	  91.662	1037.176	226.051	     0.000	    50.263	  3525.458	     0.000	     0.000	     0.000	     0.000	   179.911	   -55.313	    55.224
383.03	-2775.209	-4690.643	 3484.722	  90.805	1045.010	226.628	     0.000	    50.263	  3525.458	     0.000	     0.000	     0.000	     0.000	   179.971	   -55.603	    55.574
384.03	-2774.935	-4690.323	 3483.762	  89.938	1052.873	227.205	     0.000	    50.263	  3525.458	     0.000	     0.000	     0.000	     0.000	   179.913	   -55.888	    55.802
385.03	-2774.656	-4689.997	 3482.796	  89.062	1060.765	227.783	     0.000	    50.263	  3525.458	     0.000	     0.000	     0.000	     0.000	   179.986	   -56.170	    56.155
386.03	-2774.373	-4689.663	 3481.826	  88.176	1068.684	228.360	     0.000	    50.263	  3525.458	     0.000	     0.000	     0.000	     0.000	   179.958	   -56.447	    56.405
387.03	-2774.086	-4689.323	 3480.850	  87.281	1076.631	228.938	     0.000	    50.263	  3525.458	     0.000	     0.000	     0.000	     0.000	   179.931	   -56.720	    56.651
388.03	-2773.795	-4688.976	 3479.869	  86.376	1084.604	229.517	     0.000	    50.263	  3525.458	     0.000	     0.000	     0.000	     0.000	   179.904	   -56.989	    56.893
389.03	-2773.499	-4688.622	 3478.883	  85.462	1092.604	230.095	     0.000	    50.263	  3525.458	     0.000	     0.000	     0.000	     0.000	   179.879	   -57.254	    57.133
390.03	-2773.200	-4688.262	 3477.892	  84.538	1100.630	230.674	     0.000	    50.263	  3525.458	     0.000	     0.000	     0.000	     0.000	   179.973	   -57.515	    57.489
391.03	-2772.896	-4687.894	 3476.896	  83.605	1108.681	231.252	     0.000	    50.263	  3525.458	     0.000	     0.000	     0.000	     0.000	   179.948	   -57.773	    57.721
392.03	-2772.589	-4687.520	 3475.894	  82.663	1116.757	231.832	     0.000	    50.263	  3525.458	     0.000	     0.000	     0.000	     0.000	   179.923	   -58.027	    57.949
393.03	-2772.277	-4687.138	 3474.888	  81.711	1124.857	232.411	     0.000	    50.263	  3525.458	     0.000	     0.000	     0.000	     0.000	   179.898	   -58.277	    58.175
394.03	-2771.961	-4686.750	 3473.876	  80.749	1132.982	232.990	     0.000	    50.263	  3525.458	     0.000	     0.000	     0.000	     0.000	   179.887	   -58.524	    58.410
395.03	-2771.641	-4686.355	 3472.859	  79.778	1141.130	233.570	     0.000	    50.263	  3525.458	     0.000	     0.000	     0.000	     0.000	   179.888	   -58.767	    58.655
396.03	-2771.316	-4685.953	 3471.838	  78.798	1149.302	234.150	     0.000	    50.263	  3525.458	     0.000	     0.000	     0.000	     0.000	   179.890	   -59.007	    58.897
397.03	-2770.988	-4685.544	 3470.810	  77.808	1157.496	234.730	     0.000	    50.263	  3525.458	     0.000	     0.000	     0.000	     0.000	   179.891	   -59.243	    59.134
398.03	-2770.655	-4685.129	 3469.778	  76.809	1165.712	235.310	     0.000	    50.263	  3525.458	     0.000	     0.000	     0.000	     0.000	   179.893	   -59.476	    59.369
399.03	-2770.319	-4684.706	 3468.741	  75.800	1173.951	235.891	     0.000	    50.263	  3525.458	     0.000	     0.000	     0.000	     0.000	   179.894	   -59.706	    59.600
400.03	-2769.978	-4684.277	 3467.698	  74.782	1182.212	236.472	     0.000	    50.263	  3525.458	     0.000	     0.000	     0.000	     0.000	   179.896	   -59.933	    59.828
401.03	-2769.633	-4683.841	 3466.651	  73.754	1190.493	237.053	     0.000	    50.263	  3525.458	     0.000	     0.000	     0.000	     0.000	   179.897	   -60.156	    60.053
402.03	-2769.283	-4683.398	 3465.598	  72.717	1198.796	237.634	     0.000	    50.263	  3525.458	     0.000	     0.000	     0.000	     0.000	   179.921	   -60.377	    60.298
403.03	-2768.930	-4682.948	 3464.540	  71.670	1207.120	238.215	     0.000	    50.263	  3525.458	     0.000	     0.000	     0.000	     0.000	   179.944	   -60.594	    60.539
404.03	-2768.573	-4682.491	 3463.477	  70.614	1215.463	238.797	     0.000	    50.263	  3525.458	     0.000	     0.000	     0.000	     0.000	   179.967	   -60.809	    60.776
405.03	-2768.211	-4682.027	 3462.409	  69.548	1223.827	239.379	     0.000	    50.263	  3525.458	     0.000	     0.000	     0.000	     0.000	   179.989	   -61.020	    61.010
406.03	-2767.845	-4681.556	 3461.335	  68.473	1232.211	239.961	     0.000	    50.263	  3525.458	     0.000	     0.000	     0.000	     0.000	   179.893	   -61.229	    61.122
407.03	-2767.475	-4681.079	 3460.257	  67.388	1240.614	240.543	     0.000	    50.263	  3525.458	     0.000	     0.000	     0.000	     0.000	   179.916	   -61.435	    61.351
408.03	-2767.101	-4680.594	 3459.173	  66.294	1249.036	241.126	     0.000	    50.263	  3525.458	     0.000	     0.000	     0.000	     0.000	   179.938	   -61.638	    61.576
409.03	-2766.722	-4680.103	 3458.084	  65.190	1257.476	241.709	     0.000	    50.263	  3525.458	     0.000	     0.000	     0.000	     0.000	   179.979	   -61.839	    61.818
410.03	-2766.340	-4679.605	 3456.990	  64.077	1265.936	242.292	     0.000	    50.263	  3525.458	     0.000	     0.000	     0.000	     0.000	   179.899	   -62.037	    61.935
411.03	-2765.953	-4679.100	 3455.891	  62.954	1274.414	242.875	     0.000	    50.263	  3525.458	     0.000	     0.000	     0.000	     0.000	   179.940	   -62.232	    62.172
412.03	-2765.562	-4678.588	 3454.787	  61.822	1282.909	243.459	     0.000	    50.263	  3525.458	     0.000	     0.000	     0.000	     0.000	   179.980	   -62.425	    62.405
413.03	-2765.167	-4678.069	 3453.677	  60.680	1291.423	244.043	     0.000	    50.263	  3525.458	     0.000	     0.000	     0.000	     0.000	   179.902	   -62.615	    62.517
414.03	-2764.768	-4677.543	 3452.563	  59.529	1299.954	244.627	     0.000	    50.263	  3525.458	     0.000	     0.000	     0.000	     0.000	   179.942	   -62.803	    62.745
415.03	-2764.364	-4677.010	 3451.443	  58.368	1308.502	245.211	     0.000	    50.263	  3525.458	     0.000	     0.000	     0.000	     0.000	   179.991	   -62.988	    62.978
416.03	-2763.956	-4676.471	 3450.318	  57.198	1317.068	245.796	     0.000	    50.263	  3525.458	     0.000	     0.000	     0.000	     0.000	   179.925	   -63.171	    63.096
417.03	-2763.544	-4675.924	 3449.188	  56.018	1325.650	246.381	     0.000	    50.263	  3525.458	     0.000	     0.000	     0.000	     0.000	   179.981	   -63.351	    63.333
418.03	-2763.128	-4675.371	 3448.053	  54.828	1334.249	246.966	     0.000	    50.263	  3525.458	     0.000	     0.000	     0.000	     0.000	   179.917	   -63.530	    63.447
419.03	-2762.708	-4674.811	 3446.912	  53.629	1342.864	247.552	     0.000	    50.263	  3525.458	     0.000	     0.000	     0.000	     0.000	   179.973	   -63.706	    63.679
420.03	-2762.284	-4674.243	 3445.767	  52.421	1351.496	248.137	     0.000	    50.263	  3525.458	     0.000	     0.000	     0.000	     0.000	   179.910	   -63.880	    63.790
421.03	-2761.856	-4673.670	 3444.619	  51.205	1349.866	248.722	     0.000	    49.986	  3536.815	     0.000	     0.000	     0.750	     2.101	   179.964	   -64.052	    64.016
422.03	-2761.430	-4673.099	 3443.482	  49.998	1330.895	249.298	     0.000	    49.306	  3564.804	     0.000	     0.000	     1.000	     2.976	   179.901	   -64.226	    64.127
423.03	-2761.009	-4672.533	 3442.365	  48.808	1310.270	249.862	     0.000	    48.601	  3594.101	     0.000	     0.000	     1.000	     3.005	   179.955	   -64.401	    64.356
424.03	-2760.594	-4671.973	 3441.268	  47.634	1289.377	250.414	     0.000	    47.896	  3623.683	     0.000	     0.000	     1.000	     3.034	   179.890	   -64.579	    64.469
425.03	-2760.184	-4671.418	 3440.190	  46.478	1268.209	250.954	     0.000	    47.191	  3653.555	     0.000	     0.000	     1.000	     3.064	   179.944	   -64.759	    64.703
426.03	-2759.779	-4670.870	 3439.133	  45.339	1246.762	251.481	     0.000	    46.486	  3683.722	     0.000	     0.000	     1.000	     3.094	   179.878	   -64.941	    64.819
427.03	-2759.379	-4670.328	 3438.096	  44.218	1225.029	251.995	     0.000	    45.781	  3714.191	     0.000	     0.000	     1.000	     3.126	   179.934	   -65.124	    65.058
428.03	-2758.986	-4669.792	 3437.079	  43.115	1203.004	252.497	     0.000	    45.076	  3744.967	     0.000	     0.000	     1.000	     3.157	   179.981	   -65.311	    65.292
429.03	-2758.598	-4669.264	 3436.083	  42.031	1180.681	252.987	     0.000	    44.371	  3776.058	     0.000	     0.000	     1.000	     3.190	   179.903	   -65.499	    65.402
430.03	-2758.216	-4668.742	 3435.108	  40.965	1158.053	253.463	     0.000	    43.666	  3807.469	     0.000	     0.000	     1.000	     3.223	   179.941	   -65.690	    65.631
431.03	-2757.840	-4668.227	 3434.154	  39.919	1135.114	253.928	     0.000	    42.961	  3839.208	     0.000	     0.000	     1.000	     3.256	   179.980	   -65.884	    65.864
432.03	-2757.471	-4667.719	 3433.222	  38.892	1111.857	254.379	     0.000	    42.256	  3871.280	     0.000	     0.000	     1.000	     3.291	   179.899	   -66.080	    65.980
433.03	-2757.108	-4667.220	 3432.311	  37.885	1088.275	254.818	     0.000	    41.551	  3903.694	     0.000	     0.000	     1.000	     3.326	   179.939	   -66.280	    66.218
434.03	-2756.751	-4666.728	 3431.422	  36.899	1064.361	255.244	     0.000	    40.846	  3936.456	     0.000	     0.000	     1.000	     3.362	   179.979	   -66.482	    66.461
435.03	-2756.401	-4666.244	 3430.554	  35.932	1040.107	255.657	     0.000	    40.141	  3969.575	     0.000	     0.000	     1.000	     3.399	   179.884	   -66.688	    66.572
436.03	-2756.058	-4665.768	 3429.710	  34.987	1015.505	256.057	     0.000	    39.436	  4003.057	     0.000	     0.000	     1.000	     3.436	   179.904	   -66.897	    66.800
437.03	-2755.722	-4665.301	 3428.887	  34.063	 990.548	256.444	     0.000	    38.731	  4036.911	     0.000	     0.000	     1.000	     3.475	   179.924	   -67.109	    67.033
438.03	-2755.393	-4664.843	 3428.087	  33.161	 965.226	256.818	     0.000	    38.026	  4071.146	     0.000	     0.000	     1.000	     3.514	   179.945	   -67.326	    67.270
439.03	-2755.072	-4664.394	 3427.310	  32.281	 939.532	257.180	     0.000	    37.321	  4105.770	     0.000	     0.000	     1.000	     3.554	   179.966	   -67.546	    67.513
440.03	-2754.758	-4663.955	 3426.557	  31.423	 913.456	257.528	     0.000	    36.616	  4140.792	     0.000	     0.000	     1.000	     3.595	   179.988	   -67.772	    67.760
441.03	-2754.452	-4663.525	 3425.827	  30.589	 886.990	257.863	     0.000	    35.911	  4176.220	     0.000	     0.000	     1.000	     3.637	   179.988	   -68.001	    67.989
442.03	-2754.153	-4663.106	 3425.120	  29.777	 860.124	258.185	     0.000	    35.206	  4212.066	     0.000	     0.000	     1.000	     3.680	   179.988	   -68.235	    68.223
443.03	-2753.863	-4662.696	 3424.437	  28.990	 832.847	258.494	     0.000	    34.501	  4248.339	     0.000	     0.000	     1.000	     3.724	   179.988	   -68.475	    68.463
444.03	-2753.581	-4662.297	 3423.779	  28.227	 805.151	258.789	     0.000	    33.797	  4285.048	     0.000	     0.000	     1.000	     3.770	   179.987	   -68.721	    68.708
445.03	-2753.308	-4661.910	 3423.145	  27.488	 777.024	259.072	     0.000	    33.092	  4322.205	     0.000	     0.000	     1.000	     3.816	   179.974	   -68.972	    68.947
446.03	-2753.043	-4661.533	 3422.536	  26.775	 748.455	259.341	     0.000	    32.387	  4359.821	     0.000	     0.000	     1.000	     3.863	   179.947	   -69.230	    69.178
447.03	-2752.787	-4661.169	 3421.952	  26.087	 719.434	259.597	     0.000	    31.682	  4397.907	     0.000	     0.000	     1.000	     3.912	   179.919	   -69.496	    69.415
448.03	-2752.541	-4660.816	 3421.393	  25.426	 689.948	259.840	     0.000	    30.977	  4436.475	     0.000	     0.000	     1.000	     3.962	   179.889	   -69.770	    69.658
449.03	-2752.303	-4660.476	 3420.859	  24.791	 659.913	260.069	     8.773	    30.272	  4475.505	     0.000	     0.000	     1.000	     4.038	   179.985	   -70.052	    70.038
450.03	-2752.076	-4660.148	 3420.352	  24.184	 629.186	260.285	     8.818	    29.567	  4514.976	     0.000	     0.000	     1.000	     4.096	   179.926	   -70.344	    70.269
451.03	-2751.858	-4659.834	 3419.871	  23.605	 597.908	260.488	     8.765	    28.862	  4554.955	     0.000	     0.000	     1.000	     4.154	   179.984	   -70.647	    70.631
452.03	-2751.651	-4659.534	 3419.416	  23.054	 566.069	260.678	     8.608	    28.157	  4595.458	     0.000	     0.000	     1.000	     4.214	   179.920	   -70.961	    70.881
453.03	-2751.454	-4659.248	 3418.989	  22.533	 533.663	260.854	     8.342	    27.452	  4636.496	     0.000	     0.000	     1.000	     4.274	   179.966	   -71.289	    71.256
454.03	-2751.268	-4658.977	 3418.588	  22.042	 500.690	261.017	     7.968	    26.747	  4678.086	     0.000	     0.000	     1.000	     4.334	   179.982	   -71.632	    71.615
455.03	-2751.093	-4658.721	 3418.216	  21.581	 467.158	261.166	     7.490	    26.042	  4720.242	     0.000	     0.000	     1.000	     4.392	   179.871	   -71.993	    71.864
456.03	-2750.929	-4658.481	 3417.871	  21.152	 433.078	261.303	     6.916	    25.337	  4762.979	     0.000	     0.000	     1.000	     4.449	   179.883	   -72.373	    72.257
457.03	-2750.777	-4658.257	 3417.554	  20.754	 398.467	261.426	     6.258	    24.632	  4806.315	     0.000	     0.000	     1.000	     4.505	   179.958	   -72.777	    72.735
458.03	-2750.637	-4658.050	 3417.265	  20.389	 363.338	261.537	     5.533	    23.927	  4850.267	     0.000	     0.000	     1.000	     4.560	   179.911	   -73.208	    73.119
459.03	-2750.509	-4657.860	 3417.005	  20.057	 327.698	261.634	     4.762	    23.222	  4894.854	     0.000	     0.000	     1.000	     4.615	   179.952	   -73.672	    73.624
460.03	-2750.393	-4657.688	 3416.774	  19.759	 291.536	261.720	     3.959	    22.517	  4940.095	     0.000	     0.000	     1.000	     4.671	   179.947	   -74.176	    74.123
461.03	-2750.291	-4657.535	 3416.571	  19.495	 254.827	261.792	     3.160	    21.812	  4986.011	     0.000	     0.000	     1.000	     4.732	   179.942	   -74.730	    74.672
462.03	-2750.202	-4657.400	 3416.398	  19.266	 217.522	261.853	     2.394	    21.107	  5032.623	     0.000	     0.000	     1.000	     4.798	   179.935	   -75.348	    75.282
463.03	-2750.126	-4657.285	 3416.253	  19.072	 179.563	261.902	     1.689	    20.402	  5079.954	     0.000	     0.000	     1.000	     4.871	   179.924	   -76.055	    75.979
464.03	-2750.064	-4657.191	 3416.138	  18.915	 140.901	261.939	     1.073	    19.697	  5128.029	     0.000	     0.000	     1.000	     4.947	   179.865	   -76.886	    76.751
465.03	-2750.017	-4657.118	 3416.052	  18.796	 101.513	261.965	     0.574	    18.992	  5176.873	     0.000	     0.000	     1.000	     5.026	   179.883	   -77.922	    77.805
466.03	-2749.975	-4657.054	 3415.979	  18.692	 111.022	261.986	     0.666	    18.992	  5176.873	     0.000	     0.000	     0.000	     0.002	   179.855	   -78.970	    78.824
467.03	-2749.929	-4656.982	 3415.900	  18.579	 120.559	262.007	     0.799	    18.992	  5176.873	     0.000	     0.000	     0.000	     0.002	   179.918	   -79.848	    79.767
468.03	-2749.880	-4656.903	 3415.817	  18.455	 130.117	262.028	     0.950	    18.992	  5176.873	     0.000	     0.000	     0.000	     0.002	   179.965	   -80.597	    80.563
469.03	-2749.826	-4656.818	 3415.728	  18.322	 139.690	262.049	     1.118	    18.992	  5176.873	     0.000	     0.000	     0.000	     0.003	   179.970	   -81.243	    81.213
470.03	-2749.767	-4656.725	 3415.634	  18.180	 149.275	262.070	     1.306	    18.992	  5176.873	     0.000	     0.000	     0.000	     0.003	   179.920	   -81.806	    81.726
471.03	-2749.705	-4656.625	 3415.535	  18.027	 158.868	262.091	     1.516	    18.992	  5176.873	     0.000	     0.000	     0.000	     0.004	   179.930	   -82.301	    82.230
472.03	-2749.638	-4656.519	 3415.431	  17.865	 168.466	262.112	     1.749	    18.992	  5176.873	     0.000	     0.000	     0.000	     0.004	   179.874	   -82.738	    82.612
473.03	-2749.568	-4656.405	 3415.321	  17.694	 178.068	262.133	     2.008	    18.992	  5176.873	     0.000	     0.000	     0.000	     0.005	   179.981	   -83.129	    83.110
474.03	-2749.493	-4656.284	 3415.207	  17.512	 187.670	262.154	     2.295	    18.992	  5176.873	     0.000	     0.000	     0.000	     0.006	   179.881	   -83.479	    83.360
475.03	-2749.414	-4656.156	 3415.087	  17.321	 197.273	262.175	     2.614	    18.992	  5176.873	     0.000	     0.000	     0.000	     0.006	   179.939	   -83.795	    83.734
476.03	-2749.330	-4656.021	 3414.962	  17.120	 206.872	262.196	     2.967	    18.992	  5176.873	     0.000	     0.000	     0.000	     0.008	   179.888	   -84.081	    83.969
477.03	-2749.243	-4655.879	 3414.832	  16.910	 216.459	262.217	     3.358	    18.992	  5176.873	     0.000	     0.000	     0.000	     0.010	   179.987	   -84.341	    84.329
478.03	-2749.151	-4655.730	 3414.696	  16.690	 226.021	262.238	     3.790	    18.992	  5176.873	     0.000	     0.000	     0.000	     0.014	   179.989	   -84.580	    84.568
479.03	-2749.056	-4655.575	 3414.556	  16.461	 235.548	262.259	     4.268	    18.992	  5176.873	     0.000	     0.000	     0.000	     0.018	   179.892	   -84.799	    84.691
480.03	-2748.956	-4655.412	 3414.410	  16.221	 245.026	262.280	     4.796	    18.992	  5176.873	     0.000	     0.000	     0.000	     0.024	   179.931	   -85.000	    84.931
481.03	-2748.852	-4655.242	 3414.260	  15.973	 254.443	262.301	     5.378	    18.992	  5176.873	     0.000	     0.000	     0.000	     0.032	   179.982	   -85.187	    85.169
482.03	-2748.744	-4655.066	 3414.104	  15.715	 263.782	262.323	     6.019	    18.992	  5176.873	     0.000	     0.000	     0.000	     0.041	   179.923	   -85.360	    85.283
483.03	-2748.632	-4654.882	 3413.944	  15.448	 273.028	262.344	     6.725	    18.992	  5176.873	     0.000	     0.000	     0.000	     0.051	   179.880	   -85.521	    85.401
484.03	-2748.516	-4654.692	 3413.778	  15.171	 282.163	262.365	     7.502	    18.992	  5176.873	     0.000	     0.000	     0.000	     0.064	   179.971	   -85.671	    85.641
485.03	-2748.396	-4654.496	 3413.608	  14.885	 291.168	262.386	     8.356	    18.992	  5176.873	     0.000	     0.000	     0.000	     0.078	   179.945	   -85.811	    85.756
486.03	-2748.272	-4654.293	 3413.433	  14.591	 300.025	262.407	     9.293	    18.992	  5176.873	     0.000	     0.000	     0.000	     0.094	   179.928	   -85.943	    85.871
487.03	-2748.144	-4654.083	 3413.253	  14.287	 308.713	262.427	    10.320	    18.992	  5176.873	     0.000	     0.000	     0.000	     0.113	   179.920	   -86.066	    85.986
488.03	-2748.013	-4653.867	 3413.069	  13.975	 317.210	262.448	    11.443	    18.992	  5176.873	     0.000	     0.000	     0.000	     0.134	   179.919	   -86.183	    86.101
489.03	-2747.877	-4653.645	 3412.880	  13.655	 325.496	262.469	    12.672	    18.992	  5176.873	     0.000	     0.000	     0.000	     0.157	   179.923	   -86.293	    86.216
490.03	-2747.739	-4653.417	 3412.687	  13.326	 333.548	262.490	    14.012	    18.992	  5176.873	     0.000	     0.000	     0.000	     0.182	   179.938	   -86.397	    86.334
491.03	-2747.597	-4653.183	 3412.490	  12.989	 341.343	262.510	    15.472	    18.992	  5176.873	     0.000	     0.000	     0.000	     0.209	   179.956	   -86.495	    86.451
492.03	-2747.451	-4652.944	 3412.289	  12.645	 348.857	262.531	    17.060	    18.992	  5176.873	     0.000	     0.000	     0.000	     0.239	   179.977	   -86.589	    86.566
493.03	-2747.302	-4652.699	 3412.084	  12.293	 356.067	262.551	    18.782	    18.992	  5176.873	     0.000	     0.000	     0.000	     0.272	   179.887	   -86.678	    86.565
494.03	-2747.151	-4652.449	 3411.876	  11.935	 362.948	262.572	    20.648	    18.992	  5176.873	     0.000	     0.000	     0.000	     0.307	   179.918	   -86.763	    86.682
495.03	-2746.996	-4652.194	 3411.663	  11.569	 369.476	262.592	    22.663	    18.992	  5176.873	     0.000	     0.000	     0.000	     0.344	   179.951	   -86.845	    86.796
496.03	-2746.838	-4651.934	 3411.448	  11.197	 375.626	262.612	    24.834	    18.992	  5176.873	     0.000	     0.000	     0.000	     0.384	   179.988	   -86.922	    86.911
497.03	-2746.678	-4651.670	 3411.230	  10.819	 381.376	262.631	    27.059	    18.992	  5176.873	     0.000	     0.000	     0.000	     0.425	   179.913	   -86.997	    86.910
498.03	-2746.516	-4651.401	 3411.008	  10.436	 386.738	262.651	    29.214	    18.992	  5176.873	     0.000	     0.000	     0.000	     0.465	   179.957	   -87.068	    87.025
499.03	-2746.351	-4651.129	 3410.784	  10.047	 391.706	262.670	    31.469	    18.992	  5176.873	     0.000	     0.000	     0.000	     0.506	   179.887	   -87.137	    87.025
500.03	-2746.184	-4650.853	 3410.558	   9.654	 396.267	262.689	    33.818	    18.992	  5176.873	     0.000	     0.000	     0.000	     0.548	   179.936	   -87.204	    87.140
501.03	-2746.015	-4650.575	 3410.330	   9.257	 397.199	262.708	    35.755	    18.900	  5183.212	     0.000	     0.000	     0.750	     1.491	   179.987	   -87.269	    87.256
502.03	-2745.848	-4650.299	 3410.105	   8.864	 388.551	262.726	    35.928	    18.675	  5198.672	     0.000	     0.000	     0.991	     1.950	   179.921	   -87.334	    87.255
503.03	-2745.685	-4650.029	 3409.886	   8.480	 379.196	262.744	    35.832	    18.442	  5214.722	     0.000	     0.000	     0.991	     1.947	   179.971	   -87.399	    87.370
504.03	-2745.525	-4649.766	 3409.672	   8.106	 369.886	262.760	    35.645	    18.209	  5230.832	     0.000	     0.000	     0.991	     1.941	   179.904	   -87.465	    87.369
505.03	-2745.370	-4649.508	 3409.464	   7.740	 360.643	262.776	    35.373	    17.976	  5247.001	     0.000	     0.000	     0.991	     1.934	   179.954	   -87.530	    87.485
506.03	-2745.218	-4649.258	 3409.261	   7.385	 351.485	262.791	    35.021	    17.743	  5263.230	     0.000	     0.000	     0.991	     1.924	   179.887	   -87.597	    87.484
507.03	-2745.071	-4649.013	 3409.064	   7.038	 342.428	262.805	    34.597	    17.510	  5279.518	     0.000	     0.000	     0.991	     1.914	   179.938	   -87.661	    87.599
508.03	-2744.927	-4648.775	 3408.872	   6.700	 333.485	262.818	    34.105	    17.277	  5295.867	     0.000	     0.000	     0.991	     1.902	   179.987	   -87.727	    87.714
509.03	-2744.786	-4648.542	 3408.686	   6.371	 324.663	262.831	    33.552	    17.044	  5312.276	     0.000	     0.000	     0.991	     1.889	   179.922	   -87.792	    87.713
510.03	-2744.650	-4648.316	 3408.505	   6.050	 315.969	262.843	    32.943	    16.811	  5328.745	     0.000	     0.000	     0.991	     1.876	   179.971	   -87.857	    87.828
511.03	-2744.517	-4648.095	 3408.329	   5.739	 307.403	262.854	    32.282	    16.578	  5345.276	     0.000	     0.000	     0.991	     1.863	   179.905	   -87.922	    87.827
512.03	-2744.387	-4647.880	 3408.158	   5.436	 298.964	262.865	    31.575	    16.345	  5361.868	     0.000	     0.000	     0.991	     1.851	   179.955	   -87.986	    87.941
513.03	-2744.261	-4647.671	 3407.992	   5.141	 290.646	262.875	    30.823	    16.112	  5378.523	     0.000	     0.000	     0.991	     1.839	   179.889	   -88.051	    87.940
514.03	-2744.139	-4647.468	 3407.831	   4.854	 282.443	262.884	    30.030	    15.880	  5395.240	     0.000	     0.000	     0.991	     1.828	   179.943	   -88.114	    88.057
515.03	-2744.019	-4647.271	 3407.675	   4.576	 274.343	262.893	    29.198	    15.647	  5412.021	     0.000	     0.000	     0.991	     1.818	   179.994	   -88.180	    88.173
516.03	-2743.904	-4647.078	 3407.524	   4.305	 266.334	262.901	    28.330	    15.414	  5428.866	     0.000	     0.000	     0.991	     1.809	   179.931	   -88.242	    88.172
517.03	-2743.791	-4646.892	 3407.377	   4.043	 258.400	262.909	    27.425	    15.181	  5445.775	     0.000	     0.000	     0.991	     1.802	   179.981	   -88.305	    88.287
518.03	-2743.683	-4646.711	 3407.235	   3.788	 250.526	262.916	    26.484	    14.948	  5462.751	     0.000	     0.000	     0.991	     1.797	   179.919	   -88.367	    88.286
519.03	-2743.577	-4646.535	 3407.098	   3.542	 242.693	262.923	    25.510	    14.715	  5479.793	     0.000	     0.000	     0.991	     1.794	   179.973	   -88.430	    88.403
520.03	-2743.474	-4646.365	 3406.965	   3.303	 234.881	262.929	    24.501	    14.482	  5496.903	     0.000	     0.000	     0.991	     1.793	   179.910	   -88.492	    88.402
521.03	-2743.375	-4646.200	 3406.837	   3.072	 227.072	262.935	    23.458	    14.249	  5514.081	     0.000	     0.000	     0.991	     1.793	   179.964	   -88.553	    88.517
522.03	-2743.280	-4646.040	 3406.713	   2.848	 219.236	262.940	    22.381	    14.016	  5531.329	     0.000	     0.000	     0.991	     1.799	   179.902	   -88.614	    88.516
523.03	-2743.187	-4645.886	 3406.594	   2.633	 211.345	262.945	    21.268	    13.783	  5548.649	     0.000	     0.000	     0.991	     1.805	   179.956	   -88.674	    88.630
524.03	-2743.098	-4645.738	 3406.480	   2.425	 203.397	262.950	    20.125	    13.550	  5566.041	     0.000	     0.000	     0.991	     1.811	   179.894	   -88.735	    88.629
525.03	-2743.013	-4645.595	 3406.369	   2.226	 195.392	262.954	    18.957	    13.317	  5583.507	     0.000	     0.000	     0.991	     1.817	   179.951	   -88.793	    88.744
526.03	-2742.930	-4645.458	 3406.264	   2.034	 187.328	262.958	    17.770	    13.084	  5601.049	     0.000	     0.000	     0.991	     1.823	   179.889	   -88.854	    88.743
527.03	-2742.852	-4645.327	 3406.163	   1.851	 179.204	262.961	    16.570	    12.852	  5618.668	     0.000	     0.000	     0.991	     1.829	   179.949	   -88.911	    88.860
528.03	-2742.776	-4645.201	 3406.067	   1.676	 171.019	262.964	    15.363	    12.619	  5636.366	     0.000	     0.000	     0.991	     1.835	   179.887	   -88.971	    88.859
529.03	-2742.705	-4645.081	 3405.975	   1.509	 162.772	262.967	    14.155	    12.386	  5654.145	     0.000	     0.000	     0.991	     1.842	   179.947	   -89.027	    88.973
530.03	-2742.636	-4644.967	 3405.888	   1.350	 154.459	262.969	    12.954	    12.153	  5672.008	     0.000	     0.000	     0.991	     1.849	   179.886	   -89.087	    88.972
531.03	-2742.572	-4644.859	 3405.806	   1.199	 146.080	262.972	    11.766	    11.920	  5689.955	     0.000	     0.000	     0.991	     1.856	   179.948	   -89.141	    89.089
532.03	-2742.511	-4644.756	 3405.729	   1.057	 137.631	262.974	    10.596	    11.687	  5707.990	     0.000	     0.000	     0.991	     1.863	   179.888	   -89.200	    89.088
533.03	-2742.453	-4644.660	 3405.656	   0.924	 129.105	262.975	     9.453	    11.454	  5726.120	     0.000	     0.000	     0.992	     1.871	   179.949	   -89.253	    89.202
534.03	-2742.399	-4644.570	 3405.588	   0.799	 120.500	262.977	     8.341	    11.221	  5744.348	     0.000	     0.000	     0.992	     1.879	   179.889	   -89.312	    89.201
535.03	-2742.349	-4644.486	 3405.525	   0.682	 111.817	262.978	     7.269	    10.988	  5762.670	     0.000	     0.000	     0.992	     1.887	   179.953	   -89.364	    89.317
536.03	-2742.303	-4644.408	 3405.466	   0.575	 103.052	262.979	     6.245	    10.755	  5781.091	     0.000	     0.000	     0.992	     1.896	   179.894	   -89.422	    89.316
537.03	-2742.261	-4644.337	 3405.413	   0.476	  94.146	262.980	     5.269	    10.522	  5799.612	     0.000	     0.000	     0.992	     1.933	   179.957	   -89.473	    89.431
538.03	-2742.222	-4644.272	 3405.364	   0.386	  84.954	262.981	     4.333	    10.289	  5818.237	     0.000	     0.000	     0.992	     1.938	   179.899	   -89.531	    89.429
539.03	-2742.187	-4644.214	 3405.321	   0.305	  75.716	262.981	     3.474	    10.056	  5836.970	     0.000	     0.000	     0.992	     1.943	   179.964	   -89.582	    89.546
540.03	-2742.157	-4644.162	 3405.282	   0.234	  66.424	262.982	     2.697	     9.823	  5855.813	     0.000	     0.000	     0.992	     1.949	   179.906	   -89.639	    89.545
541.03	-2742.130	-4644.117	 3405.249	   0.172	  57.069	262.982	     2.008	     9.590	  5874.770	     0.000	     0.000	     0.992	     1.956	   179.971	   -89.691	    89.662
542.03	-2742.107	-4644.079	 3405.221	   0.119	  47.641	262.982	     1.411	     9.356	  5893.845	     0.000	     0.000	     0.992	     1.964	   179.915	   -89.746	    89.660
543.03	-2742.089	-4644.048	 3405.198	   0.076	  38.131	262.983	     0.912	     9.123	  5913.041	     0.000	     0.000	     0.992	     1.972	   179.976	   -89.797	    89.774
544.03	-2742.074	-4644.023	 3405.180	   0.043	  28.529	262.983	     0.517	     8.890	  5932.362	     0.000	     0.000	     0.992	     1.983	   179.921	   -89.850	    89.772
545.03	-2742.064	-4644.006	 3405.167	   0.019	  18.821	262.983	     0.229	     8.657	  5951.813	     0.000	     0.000	     0.992	     1.994	   179.986	   -89.900	    89.888
546.03	-2742.058	-4643.996	 3405.159	   0.005	   8.997	262.983	     0.056	     8.424	  5971.397	     0.000	     0.000	     0.992	     2.006	   179.940	   -89.932	    89.887
